{
    "resourceType": "Bundle",
    "id": "ncdhc-antenatal-visit-collection-payload-example",
    "meta": {
        "lastUpdated": "2018-12-27T16:13:03Z"
    },
    "identifier": {
        "system": "urn:ietf:rfc:3986",
        "value": "urn:uuid:0c4151bd-1cbf-4d64-b04d-cd9187a4c6e0"
    },
    "type": "document",
    "entry": [
        {
            "fullUrl": "urn:uuid:03080024-070c-4141-8109-9d9fa34dd24c",
            "resource": {
                "resourceType": "Composition",
                "id": "2210f19f-97a8-486d-99d9-ed631fe4fc57",
                "meta": {
                    "versionId": "1",
                    "lastUpdated": "2018-12-27T16:13:03Z",
                    "profile": [
                        "http://hl7.org.au/fhir/ch/v1/StructureDefinition/ncdhc-composition-antenatal-visit"
                    ]
                },
                "status": "final",
                "type": {
                    "coding": [
                        {
                            "system": "http://hl7.org.au/fhir/ch/v1/CodeSystem/ncdhc-hi-type-1",
                            "code": "ANTVSTCLC"
                        }
                    ],
                    "text": "Antenatal Visit"
                },
                "subject": {
                    "reference": "Patient/dd78393f-37ca-4738-81d6-d9595b2e5d0f",
                    "display": "Eve Bill"
                },
                "encounter": {
                    "reference": "urn:uuid:741a72a8-df75-4484-ac89-ac4923f04b42"
                },
                "date": "2018-12-24T12:30:02Z",
                "author": [
                    {
                        "reference": "Practitioner/3db74777-fd3d-4d3b-92ec-d405977a11a5",
                        "display": "Dr. Adam Dev"
                    }
                ],
                "title": "Antenatal Record Collection Health Interaction",
                "confidentiality": "N",
                "attester": [
                    {
                        "mode": [
                            "professional"
                        ],
                        "time": "2018-12-24T12:30:02Z",
                        "party": {
                            "reference": "Organization/od78393f-37ca-4738-81d6-d9595b2e5d0f"
                        }
                    }
                ],
                "section": [
                    {
                        "title": "Maternal Health Checks",
                        "code": {
                            "coding": [
                                {
                                    "system": "http://snomed.info/sct",
                                    "code": "18114009"
                                }
                            ]
                        },
                        "entry": [
                            {
                                "reference": "urn:uuid:0308a72a8-df75-4484-ac89-ac4923f0001"
                            },
                            {
                                "reference": "urn:uuid:0308a72a8-df75-4484-ac89-ac4923f0003"
                            },
                            {
                                "reference": "urn:uuid:0308a72a8-df75-4484-ac89-ac4923f0005"
                            },
                            {
                                "reference": "urn:uuid:0308a72a8-df75-4484-ac89-ac4923f0006"
                            },
                            {
                                "reference": "urn:uuid:0308a72a8-df75-4484-ac89-ac4923f0007"
                            },
                            {
                                "reference": "urn:uuid:0308a72a8-df75-4484-ac89-ac4923f0008"
                            },
                            {
                                "reference": "urn:uuid:0308a72a8-df75-4484-ac89-ac4923f0009"
                            },
                            {
                                "reference": "urn:uuid:0308a72a8-df75-4484-ac89-ac4923f0010"
                            },
                            {
                                "reference": "urn:uuid:0308a72a8-df75-4484-ac89-ac4923f0011"
                            },
                            {
                                "reference": "urn:uuid:0308a72a8-df75-4484-ac89-ac4923f0012"
                            },
                            {
                                "reference": "urn:uuid:0308a72a8-df75-4484-ac89-ac4923f0013"
                            }
                        ]
                    },
                    {
                        "title": "Fetal Health Checks",
                        "code": {
                            "coding": [
                                {
                                    "system": "http://snomed.info/sct",
                                    "code": "713117007"
                                }
                            ]
                        },
                        "entry": [
                            {
                                "reference": "urn:uuid:0308a72a8-df75-4484-ac89-ac4923f0014"
                            },
                            {
                                "reference": "urn:uuid:0308a72a8-df75-4484-ac89-ac4923f0015"
                            },
                            {
                                "reference": "urn:uuid:0308a72a8-df75-4484-ac89-ac4923f0016"
                            },
                            {
                                "reference": "urn:uuid:0408a72a8-df75-4484-ac89-ac4923f0016"
                            },
                            {
                                "reference": "urn:uuid:0508a72a8-df75-4484-ac89-ac4923f0016"
                            },
                            {
                                "reference": "urn:uuid:0308a72a8-df75-4484-ac89-ac4923f0017"
                            },
                            {
                                "reference": "urn:uuid:0308a72a8-df75-4484-ac89-ac4923f0018"
                            },
                            {
                                "reference": "urn:uuid:0308a72a8-df75-4484-ac89-ac4923f0019"
                            }
                        ]
                    },
                    {
                        "title": "Progress notes",
                        "code": {
                            "coding": [
                                {
                                    "system": "http://snomed.info/sct",
                                    "code": "371530004"
                                }
                            ]
                        },
                        "text": {
                            "status": "additional",
                            "div": "<div xmlns=\"http://www.w3.org/1999/xhtml\">Sample Progress notes about the expectant mother patient</div>"
                        },
                        "entry": [
                            {
                                "reference": "urn:uuid:0308a72a8-df75-4484-ac89-ac4923f0020"
                            }
                        ]
                    }
                ]
            }
        },
        {
            "fullUrl": "urn:uuid:dd78393f-37ca-4738-81d6-d9595b2e5d0f",
            "resource": {
                "resourceType": "Patient",
                "id": "dd78393f-37ca-4738-81d6-d9595b2e5d0f",
                "meta": {
                    "versionId": "1",
                    "lastUpdated": "2018-12-27T16:13:03Z",
                    "profile": [
                        "http://hl7.org.au/fhir/ch/v1/StructureDefinition/ncdhc-patient-expectant-mother"
                    ]
                },
                "identifier": [
                    {
                        "type": {
                            "coding": [
                                {
                                    "system": "http://hl7.org/fhir/v2/0203",
                                    "code": "NI",
                                    "display": "National unique individual identifier"
                                }
                            ],
                            "text": "IHI"
                        },
                        "system": "http://ns.electronichealth.net.au/id/hi/ihi/1.0",
                        "value": "8003608000024083"
                    },
                    {
                        "type": {
                            "coding": [
                                {
                                    "system": "http://hl7.org/fhir/v2/0203",
                                    "code": "MR",
                                    "display": "Medical Record Number"
                                }
                            ],
                            "text": "Medical Record Number"
                        },
                        "system": "http://ns.electronichealth.net.au/id/hpio-scoped/medicalrecord/1.0/8003620000000000/02134000",
                        "value": "02134000",
                        "assigner": {
                            "display": "Blacktown Hospital"
                        }
                    }
                ],
                "active": true,
                "name": [
                    {
                        "text": "Eve Bill",
                        "family": "Bill",
                        "given": [
                            "Eve"
                        ]
                    }
                ],
                "gender": "female"
            }
        },
        {
            "fullUrl": "urn:uuid:741a72a8-df75-4484-ac89-ac4923f04b42",
            "resource": {
                "resourceType": "Encounter",
                "contained": [
                    {
                        "resourceType": "Location",
                        "id": "lc78393f-37ca-4738-81d6-d9595b2e5d0f",
                        "status": "active",
                        "name": "Blacktown Hospital"
                    },
                    {
                        "resourceType": "Appointment",
                        "id": "2c78393f-37ca-4738-81d6-d9595b2e5d0f",
                        "status": "proposed",
                        "participant": [
                            {
                                "actor": {
                                    "reference": "Patient/ncdhc-patient-expectant-mother-example"
                                },
                                "required": "required",
                                "status": "accepted"
                            }
                        ],
                        "requestedPeriod": [
                            {
                                "start": "2020-04-23T08:00:00+11:00",
                                "end": "2020-04-23T08:01:00+11:00"
                            }
                        ]
                    }
                ],
                "id": "741a72a8-df75-4484-ac89-ac4923f04b42",
                "meta": {
                    "versionId": "1",
                    "lastUpdated": "2018-12-24T12:30:02Z",
                    "profile": [
                        "http://hl7.org.au/fhir/ch/v1/StructureDefinition/ncdhc-dphr-encounter"
                    ]
                },
                "status": "finished",
                "subject": {
                    "reference": "Patient/ncdhc-patient-expectant-mother-example"
                },
                "participant": [
                    {
                        "type": [
                            {
                                "coding": [
                                    {
                                        "system": "http://hl7.org/fhir/participant-type",
                                        "code": "translator",
                                        "display": "Translator"
                                    }
                                ],
                                "text": "Registered Interpreter"
                            }
                        ],
                        "individual": {
                            "reference": "Practitioner/examiner-practitioner"
                        }
                    },
                    {
                        "type": [
                            {
                                "coding": [
                                    {
                                        "system": "http://hl7.org/fhir/v3/ParticipationType",
                                        "code": "CALLBCK",
                                        "display": "callback contact"
                                    }
                                ],
                                "text": "Clinically responsible person"
                            }
                        ],
                        "individual": {
                            "reference": "Practitioner/examiner-practitioner"
                        }
                    }
                ],
                "appointment": {
                    "reference": "#2c78393f-37ca-4738-81d6-d9595b2e5d0f"
                },
                "period": {
                    "start": "2019-12-23T08:00:00+11:00",
                    "end": "2019-12-23T08:01:00+11:00"
                },
                "serviceProvider": {
                    "reference": "Organization/examiner-organization"
                },
                "location": [
                    {
                        "location": {
                            "reference": "#lc78393f-37ca-4738-81d6-d9595b2e5d0f"
                        }
                    }
                ]
            }
        },
        {
            "fullUrl": "urn:uuid:od78393f-37ca-4738-81d6-d9595b2e5d0f",
            "resource": {
                "resourceType": "Organization",
                "id": "od78393f-37ca-4738-81d6-d9595b2e5d0f",
                "identifier": [
                    {
                        "type": {
                            "coding": [
                                {
                                    "system": "http://hl7.org.au/fhir/v2/0203",
                                    "code": "NOI",
                                    "display": "National Organisation Identifier"
                                }
                            ],
                            "text": "HPI-O"
                        },
                        "system": "http://ns.electronichealth.net.au/id/hi/hpio/1.0",
                        "value": "8003621566684455"
                    }
                ],
                "type": [
                    {
                        "coding": [
                            {
                                "system": "http://hl7.org/fhir/organization-type",
                                "code": "prov",
                                "display": "Healthcare Provider"
                            }
                        ]
                    }
                ],
                "name": "Blacktown Hospital",
                "telecom": [
                    {
                        "system": "email",
                        "value": "enquiries@blacktownhospital.com.au",
                        "use": "work"
                    }
                ]
            }
        },
        {
            "fullUrl": "urn:uuid:3db74777-fd3d-4d3b-92ec-d405977a11a5",
            "resource": {
                "resourceType": "Practitioner",
                "id": "3db74777-fd3d-4d3b-92ec-d405977a11a5",
                "identifier": [
                    {
                        "type": {
                            "coding": [
                                {
                                    "system": "http://hl7.org/fhir/v2/0203",
                                    "code": "NPI",
                                    "display": "National provider identifier"
                                }
                            ],
                            "text": "HPI-I"
                        },
                        "system": "http://ns.electronichealth.net.au/id/hi/hpii/1.0",
                        "value": "8003610833334085"
                    }
                ],
                "active": true,
                "name": [
                    {
                        "family": "Dev",
                        "given": [
                            "Adam"
                        ],
                        "prefix": [
                            "Dr"
                        ]
                    }
                ],
                "qualification": [
                    {
                        "identifier": [
                            {
                                "type": {
                                    "coding": [
                                        {
                                            "system": "http://hl7.org.au/fhir/v2/0203",
                                            "code": "AHPRA",
                                            "display": "Australian Health Practitioner Regulation Agency Registration Number"
                                        }
                                    ],
                                    "text": "AHPRA Registration Number"
                                },
                                "system": "http://hl7.org.au/id/ahpra-registration-number",
                                "value": "MED0000932850"
                            }
                        ],
                        "code": {
                            "coding": [
                                {
                                    "system": "http://www.abs.gov.au/ausstats/abs@.nsf/mf/1220.0",
                                    "code": "254111",
                                    "display": "Midwife"
                                }
                            ],
                            "text": "AHPRA qualification for Midwife"
                        },
                        "issuer": {
                            "display": "AHPRA"
                        }
                    }
                ]
            }
        },
        {
            "fullUrl": "urn:uuid:dd78393f-37ca-4738-81d6-d9595b2e5d0d",
            "resource": {
                "resourceType": "Practitioner",
                "id": "dd78393f-37ca-4738-81d6-d9595b2e5d0d",
                "identifier": [
                    {
                        "type": {
                            "coding": [
                                {
                                    "system": "http://hl7.org/fhir/v2/0203",
                                    "code": "NPI",
                                    "display": "National provider identifier"
                                }
                            ],
                            "text": "HPI-I"
                        },
                        "system": "http://ns.electronichealth.net.au/id/hi/hpii/1.0",
                        "value": "8003611234567893"
                    }
                ],
                "name": [
                    {
                        "family": "Carla",
                        "given": [
                            "Smith"
                        ],
                        "prefix": [
                            "Dr"
                        ]
                    }
                ],
                "qualification": [
                    {
                        "identifier": [
                            {
                                "type": {
                                    "coding": [
                                        {
                                            "system": "http://hl7.org.au/fhir/v2/0203",
                                            "code": "AHPRA",
                                            "display": "Australian Health Practitioner Regulation Agency Registration Number"
                                        }
                                    ],
                                    "text": "AHPRA Registration Number"
                                },
                                "system": "http://hl7.org.au/id/ahpra-registration-number",
                                "value": "MED0000932850"
                            }
                        ],
                        "code": {
                            "coding": [
                                {
                                    "system": "http://www.abs.gov.au/ausstats/abs@.nsf/mf/1220.0",
                                    "code": "253111",
                                    "display": "General Medical Practitioner"
                                }
                            ],
                            "text": "AHPRA qualification for General Practitioner"
                        },
                        "issuer": {
                            "display": "AHPRA"
                        }
                    }
                ]
            }
        },
        {
            "fullUrl": "urn:uuid:043a72a8-df75-4484-ac89-ac4923f03b43",
            "resource": {
                "resourceType": "Encounter",
                "contained": [
                    {
                        "resourceType": "Location",
                        "id": "lc78393f-37ca-4738-81d6-d9595b2e5d0f",
                        "status": "active",
                        "name": "Blacktown Hospital"
                    }
                ],
                "id": "043a72a8-df75-4484-ac89-ac4923f03b43",
                "meta": {
                    "versionId": "1",
                    "lastUpdated": "2018-12-24T12:30:02Z",
                    "profile": [
                        "http://hl7.org.au/fhir/ch/v1/StructureDefinition/ncdhc-dphr-encounter"
                    ]
                },
                "status": "finished",
                "subject": {
                    "reference": "Patient/ncdhc-patient-expectant-mother-example"
                },
                "participant": [
                    {
                        "type": [
                            {
                                "coding": [
                                    {
                                        "system": "http://hl7.org/fhir/v3/ParticipationType",
                                        "code": "CALLBCK",
                                        "display": "callback contact"
                                    }
                                ],
                                "text": "Clinically responsible person"
                            }
                        ],
                        "individual": {
                            "reference": "Practitioner/3db74777-fd3d-4d3b-92ec-d405977a11a5"
                        }
                    }
                ],
                "period": {
                    "start": "2019-12-23T08:00:00+11:00",
                    "end": "2019-12-23T08:01:00+11:00"
                },
                "serviceProvider": {
                    "reference": "Organization/od78393f-37ca-4738-81d6-d9595b2e5d0f"
                },
                "location": [
                    {
                        "location": {
                            "reference": "#lc78393f-37ca-4738-81d6-d9595b2e5d0f"
                        }
                    }
                ]
            }
        },
        {
            "fullUrl": "urn:uuid:0308a72a8-df75-4484-ac89-ac4923f0001",
            "resource": {
                "resourceType": "Observation",
                "id": "ncdhc-observation-vitalsign-bp-example",
                "meta": {
                    "versionId": "1",
                    "lastUpdated": "2018-12-27T16:13:03Z",
                    "profile": [
                        "http://hl7.org.au/fhir/ch/v1/StructureDefinition/ncdhc-observation-vitalsign-bp"
                    ]
                },
                "status": "final",
                "category": [
                    {
                        "coding": [
                            {
                                "system": "http://hl7.org/fhir/observation-category",
                                "code": "vital-signs",
                                "display": "Vital Signs"
                            }
                        ],
                        "text": "Vital Signs"
                    }
                ],
                "code": {
                    "coding": [
                        {
                            "system": "http://loinc.org",
                            "code": "85354-9",
                            "display": "Blood pressure panel with all children optional"
                        },
                        {
                            "system": "http://snomed.info/sct",
                            "code": "75367002",
                            "display": "Blood pressure"
                        }
                    ]
                },
                "subject": {
                    "reference": "Patient/patient-baby-example",
                    "display": "Baby of Eve Bill"
                },
                "effectiveDateTime": "2018-12-27T16:13:03Z",
                "performer": [
                    {
                        "reference": "urn:uuid:dd78393f-37ca-4738-81d6-d9595b2e5d0d",
                        "display": "Examiner"
                    },
                    {
                        "reference": "urn:uuid:od78393f-37ca-4738-81d6-d9595b2e5d0f",
                        "display": "Organisation"
                    }
                ],
                "component": [
                    {
                        "code": {
                            "coding": [
                                {
                                    "system": "http://loinc.org",
                                    "code": "8480-6",
                                    "display": "Systolic blood pressure"
                                },
                                {
                                    "system": "http://snomed.info/sct",
                                    "code": "271649006",
                                    "display": "Systolic blood pressure"
                                }
                            ]
                        },
                        "valueQuantity": {
                            "value": 107,
                            "unit": "mmHg",
                            "system": "http://unitsofmeasure.org",
                            "code": "mm[Hg]"
                        }
                    },
                    {
                        "code": {
                            "coding": [
                                {
                                    "system": "http://loinc.org",
                                    "code": "8462-4",
                                    "display": "Diastolic blood pressure"
                                },
                                {
                                    "system": "http://snomed.info/sct",
                                    "code": "271650006",
                                    "display": "Diastolic blood pressure"
                                }
                            ]
                        },
                        "valueQuantity": {
                            "value": 60,
                            "unit": "mmHg",
                            "system": "http://unitsofmeasure.org",
                            "code": "mm[Hg]"
                        }
                    }
                ],
                "comment": "Completed"
            }
        },
        {
            "fullUrl": "urn:uuid:0308a72a8-df75-4484-ac89-ac4923f0003",
            "resource": {
                "resourceType": "Observation",
                "id": "0308a72a8-df75-4484-ac89-ac4923f0003",
                "meta": {
                    "versionId": "1",
                    "lastUpdated": "2019-10-27T16:13:03Z",
                    "profile": [
                        "http://hl7.org.au/fhir/ch/v1/StructureDefinition/ncdhc-observation-vitalsign-bodyweight"
                    ]
                },
                "status": "final",
                "category": [
                    {
                        "coding": [
                            {
                                "system": "http://hl7.org/fhir/observation-category",
                                "code": "vital-signs",
                                "display": "Vital Signs"
                            }
                        ],
                        "text": "Vital Signs"
                    }
                ],
                "code": {
                    "coding": [
                        {
                            "system": "http://loinc.org",
                            "code": "29463-7"
                        },
                        {
                            "system": "http://snomed.info/sct",
                            "code": "27113001"
                        }
                    ],
                    "text": "Body Weight"
                },
                "subject": {
                    "reference": "urn:uuid:dd78393f-37ca-4738-81d6-d9595b2e5d0f",
                    "display": "Eve Bill"
                },
                "effectiveDateTime": "2018-12-27T16:13:03Z",
                "performer": [
                    {
                        "reference": "urn:uuid:dd78393f-37ca-4738-81d6-d9595b2e5d0d",
                        "display": "Examiner"
                    },
                    {
                        "reference": "urn:uuid:od78393f-37ca-4738-81d6-d9595b2e5d0f",
                        "display": "Organisation"
                    }
                ],
                "valueQuantity": {
                    "value": 3200,
                    "unit": "g",
                    "system": "http://unitsofmeasure.org",
                    "code": "g"
                }
            }
        },
        {
            "fullUrl": "urn:uuid:0308a72a8-df75-4484-ac89-ac4923f0005",
            "resource": {
                "resourceType": "Observation",
                "id": "0308a72a8-df75-4484-ac89-ac4923f0005",
                "meta": {
                    "versionId": "1",
                    "lastUpdated": "2020-01-12T16:13:03Z",
                    "profile": [
                        "http://hl7.org.au/fhir/ch/v1/StructureDefinition/ncdhc-observation-estimated-gestation"
                    ]
                },
                "status": "final",
                "code": {
                    "coding": [
                        {
                            "system": "http://snomed.info/sct",
                            "code": "57036006",
                            "display": "Fetal gestational age"
                        }
                    ],
                    "text": "Estimated length of Gestation"
                },
                "subject": {
                    "reference": "urn:uuid:dd78393f-37ca-4738-81d6-d9595b2e5d0f",
                    "display": "Baby of Eve Bill"
                },
                "effectiveDateTime": "2018-12-27T16:13:03Z",
                "performer": [
                    {
                        "reference": "urn:uuid:dd78393f-37ca-4738-81d6-d9595b2e5d0d",
                        "display": "Examiner"
                    },
                    {
                        "reference": "urn:uuid:od78393f-37ca-4738-81d6-d9595b2e5d0f",
                        "display": "Organisation"
                    }
                ],
                "valueQuantity": {
                    "value": 96,
                    "unit": "days",
                    "system": "http://unitsofmeasure.org",
                    "code": "d"
                }
            }
        },
        {
            "fullUrl": "urn:uuid:0308a72a8-df75-4484-ac89-ac4923f0006",
            "resource": {
                "resourceType": "Observation",
                "id": "0308a72a8-df75-4484-ac89-ac4923f0006",
                "meta": {
                    "versionId": "1",
                    "lastUpdated": "2020-02-19T14:36:03Z",
                    "profile": [
                        "http://hl7.org.au/fhir/ch/v1/StructureDefinition/ncdhc-observation-urinalysis-protein"
                    ]
                },
                "status": "final",
                "code": {
                    "coding": [
                        {
                            "system": "http://snomed.info/sct",
                            "code": "27171005"
                        }
                    ],
                    "text": "Urinalysis (Protein / Glucose)"
                },
                "subject": {
                    "reference": "urn:uuid:dd78393f-37ca-4738-81d6-d9595b2e5d0f",
                    "display": "Eve Bill"
                },
                "effectiveDateTime": "2020-02-11T14:36:03Z",
                "performer": [
                    {
                        "reference": "urn:uuid:dd78393f-37ca-4738-81d6-d9595b2e5d0d",
                        "display": "Examiner"
                    },
                    {
                        "reference": "urn:uuid:od78393f-37ca-4738-81d6-d9595b2e5d0f",
                        "display": "Organisation"
                    }
                ],
                "valueCodeableConcept": {
                    "coding": [
                        {
                            "system": "http://snomed.info/sct",
                            "code": "443938003",
                            "display": "Procedure carried out on subject"
                        }
                    ]
                },
                "interpretation": {
                    "coding": [
                        {
                            "system": "http://snomed.info/sct",
                            "code": "17621005",
                            "display": "Normal"
                        }
                    ]
                }
            }
        },
        {
            "fullUrl": "urn:uuid:0308a72a8-df75-4484-ac89-ac4923f0007",
            "resource": {
                "resourceType": "Observation",
                "id": "0308a72a8-df75-4484-ac89-ac4923f0007",
                "meta": {
                    "versionId": "1",
                    "profile": [
                        "http://hl7.org.au/fhir/ch/v1/StructureDefinition/ncdhc-observation-breastfeeding-education"
                    ]
                },
                "status": "final",
                "code": {
                    "coding": [
                        {
                            "system": "http://snomed.info/sct",
                            "code": "243094003"
                        }
                    ]
                },
                "subject": {
                    "reference": "urn:uuid:dd78393f-37ca-4738-81d6-d9595b2e5d0f",
                    "display": "Eve Bill"
                },
                "effectiveDateTime": "2019-12-27T16:13:03Z",
                "performer": [
                    {
                        "reference": "urn:uuid:dd78393f-37ca-4738-81d6-d9595b2e5d0d",
                        "display": "Examiner"
                    },
                    {
                        "reference": "urn:uuid:od78393f-37ca-4738-81d6-d9595b2e5d0f",
                        "display": "Organisation"
                    }
                ],
                "valueCodeableConcept": {
                    "coding": [
                        {
                            "system": "http://snomed.info/sct",
                            "code": "443938003",
                            "display": "Procedure carried out on subject"
                        }
                    ]
                }
            }
        },
        {
            "fullUrl": "urn:uuid:0308a72a8-df75-4484-ac89-ac4923f0008",
            "resource": {
                "resourceType": "Observation",
                "id": "0308a72a8-df75-4484-ac89-ac4923f0008",
                "meta": {
                    "versionId": "1",
                    "lastUpdated": "2020-02-11T14:36:03Z",
                    "profile": [
                        "http://hl7.org.au/fhir/ch/v1/StructureDefinition/ncdhc-observation-bi-tobacco-usage"
                    ]
                },
                "status": "final",
                "code": {
                    "coding": [
                        {
                            "system": "http://snomed.info/sct",
                            "code": "771155005"
                        }
                    ],
                    "text": "Tobacco smoking status"
                },
                "subject": {
                    "reference": "urn:uuid:dd78393f-37ca-4738-81d6-d9595b2e5d0f",
                    "display": "Eve Bill"
                },
                "effectiveDateTime": "2020-02-11T14:36:03Z",
                "performer": [
                    {
                        "reference": "urn:uuid:dd78393f-37ca-4738-81d6-d9595b2e5d0d",
                        "display": "Examiner"
                    },
                    {
                        "reference": "urn:uuid:od78393f-37ca-4738-81d6-d9595b2e5d0f",
                        "display": "Organisation"
                    }
                ],
                "valueCodeableConcept": {
                    "coding": [
                        {
                            "system": "http://snomed.info/sct",
                            "code": "443938003",
                            "display": "Procedure carried out on subject"
                        }
                    ]
                },
                "interpretation": {
                    "coding": [
                        {
                            "system": "http://snomed.info/sct",
                            "code": "428041000124106",
                            "display": "Occasional tobacco smoker"
                        }
                    ]
                },
                "component": [
                    {
                        "code": {
                            "coding": [
                                {
                                    "system": "http://snomed.info/sct",
                                    "code": "1368921000168102",
                                    "display": "Cigarettes per day"
                                }
                            ]
                        },
                        "valueQuantity": {
                            "value": 10,
                            "unit": "per day",
                            "system": "http://unitsofmeasure.org",
                            "code": "/d"
                        }
                    },
                    {
                        "code": {
                            "coding": [
                                {
                                    "system": "http://snomed.info/sct",
                                    "code": "160625004",
                                    "display": "Date ceased smoking"
                                }
                            ]
                        },
                        "valueDateTime": "2019-12-27T16:13:03Z"
                    }
                ]
            }
        },
        {
            "fullUrl": "urn:uuid:0308a72a8-df75-4484-ac89-ac4923f0009",
            "resource": {
                "resourceType": "Observation",
                "id": "0308a72a8-df75-4484-ac89-ac4923f0009",
                "meta": {
                    "versionId": "1",
                    "lastUpdated": "2020-02-11T14:36:03Z",
                    "profile": [
                        "http://hl7.org.au/fhir/ch/v1/StructureDefinition/ncdhc-observation-bi-alcohol-intake"
                    ]
                },
                "status": "final",
                "code": {
                    "coding": [
                        {
                            "system": "http://snomed.info/sct",
                            "code": "1373571000168106"
                        }
                    ],
                    "text": "Brief Alcohol intervention"
                },
                "subject": {
                    "reference": "urn:uuid:dd78393f-37ca-4738-81d6-d9595b2e5d0f",
                    "display": "Eve Bill"
                },
                "effectiveDateTime": "2020-02-11T14:36:03Z",
                "performer": [
                    {
                        "reference": "urn:uuid:dd78393f-37ca-4738-81d6-d9595b2e5d0d",
                        "display": "Examiner"
                    },
                    {
                        "reference": "urn:uuid:od78393f-37ca-4738-81d6-d9595b2e5d0f",
                        "display": "Organisation"
                    }
                ],
                "valueCodeableConcept": {
                    "coding": [
                        {
                            "system": "http://snomed.info/sct",
                            "code": "443938003",
                            "display": "Procedure carried out on subject"
                        }
                    ]
                },
                "component": [
                    {
                        "code": {
                            "coding": [
                                {
                                    "system": "http://snomed.info/sct",
                                    "code": "1414321000168103",
                                    "display": "Number of standard drinks per day"
                                }
                            ]
                        },
                        "valueQuantity": {
                            "value": 2,
                            "unit": "per day",
                            "system": "http://unitsofmeasure.org",
                            "code": "{Drinks}/d"
                        }
                    },
                    {
                        "code": {
                            "coding": [
                                {
                                    "system": "http://snomed.info/sct",
                                    "code": "1373041000168105",
                                    "display": "Date ceased drinking alcohol"
                                }
                            ]
                        },
                        "valueDateTime": "2019-12-27T16:13:03Z"
                    }
                ]
            }
        },
        {
            "fullUrl": "urn:uuid:0308a72a8-df75-4484-ac89-ac4923f0010",
            "resource": {
                "resourceType": "Observation",
                "id": "0308a72a8-df75-4484-ac89-ac4923f0010",
                "meta": {
                    "versionId": "1",
                    "lastUpdated": "2020-02-11T14:36:03Z",
                    "profile": [
                        "http://hl7.org.au/fhir/ch/v1/StructureDefinition/ncdhc-observation-bi-other"
                    ]
                },
                "status": "final",
                "code": {
                    "coding": [
                        {
                            "system": "http://snomed.info/sct",
                            "code": "409063005"
                        }
                    ],
                    "text": "Other Brief interventions"
                },
                "subject": {
                    "reference": "urn:uuid:dd78393f-37ca-4738-81d6-d9595b2e5d0f",
                    "display": "Eve Bill"
                },
                "effectiveDateTime": "2020-02-11T14:36:03Z",
                "performer": [
                    {
                        "reference": "urn:uuid:dd78393f-37ca-4738-81d6-d9595b2e5d0d",
                        "display": "Examiner"
                    },
                    {
                        "reference": "urn:uuid:od78393f-37ca-4738-81d6-d9595b2e5d0f",
                        "display": "Organisation"
                    }
                ],
                "valueCodeableConcept": {
                    "coding": [
                        {
                            "system": "http://snomed.info/sct",
                            "code": "443938003",
                            "display": "Procedure carried out on subject"
                        }
                    ]
                },
                "comment": "No significant other details are found"
            }
        },
        {
            "fullUrl": "urn:uuid:0308a72a8-df75-4484-ac89-ac4923f0011",
            "resource": {
                "resourceType": "Observation",
                "id": "0308a72a8-df75-4484-ac89-ac4923f0011",
                "meta": {
                    "versionId": "1",
                    "lastUpdated": "2020-02-12T14:36:03Z",
                    "profile": [
                        "http://hl7.org.au/fhir/ch/v1/StructureDefinition/ncdhc-observation-illicit-drugs-gestation"
                    ]
                },
                "status": "final",
                "code": {
                    "coding": [
                        {
                            "system": "http://snomed.info/sct",
                            "code": "440664005"
                        }
                    ],
                    "text": "Illicit Drug Usage Assessment"
                },
                "subject": {
                    "reference": "urn:uuid:dd78393f-37ca-4738-81d6-d9595b2e5d0f",
                    "display": "Eve Bill"
                },
                "effectiveDateTime": "2020-02-12T14:36:03Z",
                "performer": [
                    {
                        "reference": "urn:uuid:dd78393f-37ca-4738-81d6-d9595b2e5d0d",
                        "display": "Examiner"
                    },
                    {
                        "reference": "urn:uuid:od78393f-37ca-4738-81d6-d9595b2e5d0f",
                        "display": "Organisation"
                    }
                ],
                "valueCodeableConcept": {
                    "coding": [
                        {
                            "system": "http://snomed.info/sct",
                            "code": "373066001",
                            "display": "Yes"
                        }
                    ]
                },
                "related": [
                    {
                        "type": "has-member",
                        "target": {
                            "reference": "urn:uuid:0308a72a8-df75-4484-ac89-ac4923f0005"
                        }
                    }
                ],
                "component": [
                    {
                        "code": {
                            "coding": [
                                {
                                    "system": "http://snomed.info/sct",
                                    "code": "307052004"
                                }
                            ]
                        },
                        "valueCodeableConcept": {
                            "coding": [
                                {
                                    "system": "http://snomed.info/sct",
                                    "code": "387341002"
                                }
                            ]
                        }
                    },
                    {
                        "code": {
                            "coding": [
                                {
                                    "system": "http://snomed.info/sct",
                                    "code": "228329000"
                                }
                            ]
                        },
                        "valueDateTime": "2020-02-12T14:36:03Z"
                    }
                ]
            }
        },
        {
            "fullUrl": "urn:uuid:0308a72a8-df75-4484-ac89-ac4923f0012",
            "resource": {
                "resourceType": "Observation",
                "id": "0308a72a8-df75-4484-ac89-ac4923f0012",
                "meta": {
                    "versionId": "1",
                    "lastUpdated": "2020-02-12T14:36:03Z",
                    "profile": [
                        "http://hl7.org.au/fhir/ch/v1/StructureDefinition/ncdhc-observation-emotional-health-and-wellbeing"
                    ]
                },
                "status": "final",
                "code": {
                    "coding": [
                        {
                            "system": "http://snomed.info/sct",
                            "code": "363800008"
                        }
                    ],
                    "text": "Emotional Health and Wellbeing"
                },
                "subject": {
                    "reference": "urn:uuid:dd78393f-37ca-4738-81d6-d9595b2e5d0f",
                    "display": "Eve Bill"
                },
                "effectiveDateTime": "2020-02-12T14:36:03Z",
                "performer": [
                    {
                        "reference": "urn:uuid:dd78393f-37ca-4738-81d6-d9595b2e5d0d",
                        "display": "Examiner"
                    },
                    {
                        "reference": "urn:uuid:od78393f-37ca-4738-81d6-d9595b2e5d0f",
                        "display": "Organisation"
                    }
                ],
                "valueCodeableConcept": {
                    "coding": [
                        {
                            "system": "http://snomed.info/sct",
                            "code": "17326005",
                            "display": "Well in self"
                        }
                    ]
                },
                "comment": "Followup review of patient required"
            }
        },
        {
            "fullUrl": "urn:uuid:0308a72a8-df75-4484-ac89-ac4923f0013",
            "resource": {
                "resourceType": "Observation",
                "id": "0308a72a8-df75-4484-ac89-ac4923f0013",
                "meta": {
                    "versionId": "1",
                    "lastUpdated": "2020-02-12T14:36:03Z",
                    "profile": [
                        "http://hl7.org.au/fhir/ch/v1/StructureDefinition/ncdhc-observation-medication-pres-change"
                    ]
                },
                "status": "final",
                "code": {
                    "coding": [
                        {
                            "system": "http://snomed.info/sct",
                            "code": "182838006"
                        }
                    ],
                    "text": "Current medications / prescriptions changes"
                },
                "subject": {
                    "reference": "Patient/ncdhc-patient-expectant-mother-example",
                    "display": "Eve Bill"
                },
                "effectiveDateTime": "2020-02-12T14:36:03Z",
                "performer": [
                    {
                        "reference": "Practitioner/3db74777-fd3d-4d3b-92ec-d405977a11a5",
                        "display": "Examiner"
                    },
                    {
                        "reference": "Organization/od78393f-37ca-4738-81d6-d9595b2e5d0f",
                        "display": "Organisation"
                    }
                ],
                "valueCodeableConcept": {
                    "coding": [
                        {
                            "system": "http://snomed.info/sct",
                            "code": "373067005",
                            "display": "No"
                        }
                    ]
                },
                "comment": "No medication change suggested"
            }
        },
        {
            "fullUrl": "urn:uuid:0308a72a8-df75-4484-ac89-ac4923f0014",
            "resource": {
                "resourceType": "Observation",
                "id": "0308a72a8-df75-4484-ac89-ac4923f0014",
                "meta": {
                    "versionId": "1",
                    "lastUpdated": "2020-02-11T14:36:03Z",
                    "profile": [
                        "http://hl7.org.au/fhir/ch/v1/StructureDefinition/ncdhc-observation-vitalsign-heart-rate"
                    ]
                },
                "status": "final",
                "category": [
                    {
                        "coding": [
                            {
                                "system": "http://hl7.org/fhir/observation-category",
                                "code": "vital-signs",
                                "display": "Vital Signs"
                            }
                        ],
                        "text": "Vital Signs"
                    }
                ],
                "code": {
                    "coding": [
                        {
                            "system": "http://snomed.info/sct",
                            "code": "364075005"
                        },
                        {
                            "system": "http://snomed.info/sct",
                            "code": "249043002"
                        }
                    ],
                    "text": "Heart Rate Assessment"
                },
                "subject": {
                    "reference": "urn:uuid:dd78393f-37ca-4738-81d6-d9595b2e5d0f",
                    "display": "Eve Bill"
                },
                "effectiveDateTime": "2020-02-11T14:36:03Z",
                "performer": [
                    {
                        "reference": "urn:uuid:dd78393f-37ca-4738-81d6-d9595b2e5d0d",
                        "display": "Examiner"
                    },
                    {
                        "reference": "urn:uuid:od78393f-37ca-4738-81d6-d9595b2e5d0f",
                        "display": "Organisation"
                    }
                ],
                "valueQuantity": {
                    "value": 110,
                    "unit": "/min",
                    "system": "http://unitsofmeasure.org",
                    "code": "/min"
                }
            }
        },
        {
            "fullUrl": "urn:uuid:0308a72a8-df75-4484-ac89-ac4923f0015",
            "resource": {
                "resourceType": "Observation",
                "id": "0308a72a8-df75-4484-ac89-ac4923f0015",
                "meta": {
                    "versionId": "1",
                    "lastUpdated": "2020-02-19T14:36:03Z",
                    "profile": [
                        "http://hl7.org.au/fhir/ch/v1/StructureDefinition/ncdhc-observation-fetal-movement"
                    ]
                },
                "status": "final",
                "code": {
                    "coding": [
                        {
                            "system": "http://snomed.info/sct",
                            "code": "364617005"
                        }
                    ],
                    "text": "Fetal Movement Assessment"
                },
                "subject": {
                    "reference": "urn:uuid:dd78393f-37ca-4738-81d6-d9595b2e5d0f",
                    "display": "Eve Bill"
                },
                "effectiveDateTime": "2020-02-11T14:36:03Z",
                "performer": [
                    {
                        "reference": "urn:uuid:dd78393f-37ca-4738-81d6-d9595b2e5d0d",
                        "display": "Examiner"
                    },
                    {
                        "reference": "urn:uuid:od78393f-37ca-4738-81d6-d9595b2e5d0f",
                        "display": "Organisation"
                    }
                ],
                "valueCodeableConcept": {
                    "coding": [
                        {
                            "system": "http://snomed.info/sct",
                            "code": "289431008",
                            "display": "Foetal movements present"
                        }
                    ]
                }
            }
        },
        {
            "fullUrl": "urn:uuid:0308a72a8-df75-4484-ac89-ac4923f0016",
            "resource": {
                "resourceType": "Observation",
                "id": "0308a72a8-df75-4484-ac89-ac4923f0016",
                "meta": {
                    "versionId": "1",
                    "lastUpdated": "2020-02-11T14:36:03Z",
                    "profile": [
                        "http://hl7.org.au/fhir/ch/v1/StructureDefinition/ncdhc-observation-fetus-arrangement"
                    ]
                },
                "status": "final",
                "code": {
                    "coding": [
                        {
                            "system": "http://snomed.info/sct",
                            "code": "364604007"
                        }
                    ],
                    "text": "Fetus Arrangement Assessment"
                },
                "subject": {
                    "reference": "urn:uuid:dd78393f-37ca-4738-81d6-d9595b2e5d0f",
                    "display": "Eve Bill"
                },
                "effectiveDateTime": "2020-02-11T14:36:03Z",
                "performer": [
                    {
                        "reference": "urn:uuid:dd78393f-37ca-4738-81d6-d9595b2e5d0d",
                        "display": "Examiner"
                    },
                    {
                        "reference": "urn:uuid:od78393f-37ca-4738-81d6-d9595b2e5d0f",
                        "display": "Organisation"
                    }
                ],
                "valueCodeableConcept": {
                    "coding": [
                        {
                            "system": "http://snomed.info/sct",
                            "code": "73161006",
                            "display": "Transverse lie"
                        }
                    ]
                }
            }
        },
        {
            "fullUrl": "urn:uuid:0408a72a8-df75-4484-ac89-ac4923f0016",
            "resource": {
                "resourceType": "Observation",
                "id": "0408a72a8-df75-4484-ac89-ac4923f0016",
                "meta": {
                    "versionId": "1",
                    "lastUpdated": "2020-02-11T14:37:03Z",
                    "profile": [
                        "http://hl7.org.au/fhir/ch/v1/StructureDefinition/ncdhc-observation-fetus-arrangement"
                    ]
                },
                "status": "final",
                "code": {
                    "coding": [
                        {
                            "system": "http://snomed.info/sct",
                            "code": "364604007"
                        }
                    ],
                    "text": "Fetus Arrangement Assessment"
                },
                "subject": {
                    "reference": "urn:uuid:dd78393f-37ca-4738-81d6-d9595b2e5d0f",
                    "display": "Eve Bill"
                },
                "effectiveDateTime": "2020-02-11T14:36:03Z",
                "performer": [
                    {
                        "reference": "urn:uuid:dd78393f-37ca-4738-81d6-d9595b2e5d0d",
                        "display": "Examiner"
                    },
                    {
                        "reference": "urn:uuid:od78393f-37ca-4738-81d6-d9595b2e5d0f",
                        "display": "Organisation"
                    }
                ],
                "valueCodeableConcept": {
                    "coding": [
                        {
                            "system": "http://snomed.info/sct",
                            "code": "18905000",
                            "display": "Left occipitolateral position"
                        }
                    ]
                }
            }
        },
        {
            "fullUrl": "urn:uuid:0508a72a8-df75-4484-ac89-ac4923f0016",
            "resource": {
                "resourceType": "Observation",
                "id": "0508a72a8-df75-4484-ac89-ac4923f0016",
                "meta": {
                    "versionId": "1",
                    "lastUpdated": "2020-02-11T14:39:03Z",
                    "profile": [
                        "http://hl7.org.au/fhir/ch/v1/StructureDefinition/ncdhc-observation-fetus-arrangement"
                    ]
                },
                "status": "final",
                "code": {
                    "coding": [
                        {
                            "system": "http://snomed.info/sct",
                            "code": "364604007"
                        }
                    ],
                    "text": "Fetus Arrangement Assessment"
                },
                "subject": {
                    "reference": "urn:uuid:dd78393f-37ca-4738-81d6-d9595b2e5d0f",
                    "display": "Eve Bill"
                },
                "effectiveDateTime": "2020-02-11T14:36:03Z",
                "performer": [
                    {
                        "reference": "urn:uuid:dd78393f-37ca-4738-81d6-d9595b2e5d0d",
                        "display": "Examiner"
                    },
                    {
                        "reference": "urn:uuid:od78393f-37ca-4738-81d6-d9595b2e5d0f",
                        "display": "Organisation"
                    }
                ],
                "valueCodeableConcept": {
                    "coding": [
                        {
                            "system": "http://snomed.info/sct",
                            "code": "64433002",
                            "display": "Left sacroanterior position"
                        }
                    ]
                }
            }
        },
        {
            "fullUrl": "urn:uuid:0308a72a8-df75-4484-ac89-ac4923f0017",
            "resource": {
                "resourceType": "Observation",
                "id": "0308a72a8-df75-4484-ac89-ac4923f0017",
                "meta": {
                    "versionId": "1",
                    "lastUpdated": "2020-02-19T14:36:03Z",
                    "profile": [
                        "http://hl7.org.au/fhir/ch/v1/StructureDefinition/ncdhc-observation-symphyseal-fundal-height"
                    ]
                },
                "status": "final",
                "code": {
                    "coding": [
                        {
                            "system": "http://snomed.info/sct",
                            "code": "249016007"
                        }
                    ],
                    "text": "Symphyseal Fundal Height Assessment"
                },
                "subject": {
                    "reference": "urn:uuid:dd78393f-37ca-4738-81d6-d9595b2e5d0f",
                    "display": "Eve Bill"
                },
                "effectiveDateTime": "2020-02-11T14:36:03Z",
                "performer": [
                    {
                        "reference": "urn:uuid:dd78393f-37ca-4738-81d6-d9595b2e5d0d",
                        "display": "Examiner"
                    },
                    {
                        "reference": "urn:uuid:od78393f-37ca-4738-81d6-d9595b2e5d0f",
                        "display": "Organisation"
                    }
                ],
                "valueQuantity": {
                    "value": 50,
                    "unit": "cm",
                    "system": "http://unitsofmeasure.org",
                    "code": "cm"
                }
            }
        },
        {
            "fullUrl": "urn:uuid:0308a72a8-df75-4484-ac89-ac4923f0018",
            "resource": {
                "resourceType": "Observation",
                "id": "0308a72a8-df75-4484-ac89-ac4923f0018",
                "meta": {
                    "versionId": "1",
                    "lastUpdated": "2020-02-12T14:36:03Z",
                    "profile": [
                        "http://hl7.org.au/fhir/ch/v1/StructureDefinition/ncdhc-observation-head-engagement"
                    ]
                },
                "status": "final",
                "code": {
                    "coding": [
                        {
                            "system": "http://snomed.info/sct",
                            "code": "249111004"
                        }
                    ],
                    "text": "Descent"
                },
                "subject": {
                    "reference": "urn:uuid:dd78393f-37ca-4738-81d6-d9595b2e5d0f",
                    "display": "Eve Bill"
                },
                "effectiveDateTime": "2020-02-12T14:36:03Z",
                "performer": [
                    {
                        "reference": "urn:uuid:dd78393f-37ca-4738-81d6-d9595b2e5d0d",
                        "display": "Examiner"
                    },
                    {
                        "reference": "urn:uuid:od78393f-37ca-4738-81d6-d9595b2e5d0f",
                        "display": "Organisation"
                    }
                ],
                "valueCodeableConcept": {
                    "coding": [
                        {
                            "system": "http://snomed.info/sct",
                            "code": "249112006",
                            "display": "Head engaged"
                        }
                    ]
                },
                "component": [
                    {
                        "code": {
                            "coding": [
                                {
                                    "system": "http://snomed.info/sct",
                                    "code": "278067008"
                                }
                            ]
                        },
                        "valueCodeableConcept": {
                            "coding": [
                                {
                                    "system": "http://snomed.info/sct",
                                    "code": "289374007",
                                    "display": "Fetal head 0/5 above pelvic brim"
                                }
                            ]
                        }
                    }
                ]
            }
        },
        {
            "fullUrl": "urn:uuid:0308a72a8-df75-4484-ac89-ac4923f0019",
            "resource": {
                "resourceType": "Observation",
                "id": "0308a72a8-df75-4484-ac89-ac4923f0019",
                "meta": {
                    "versionId": "1",
                    "lastUpdated": "2020-02-11T14:36:03Z",
                    "profile": [
                        "http://hl7.org.au/fhir/ch/v1/StructureDefinition/ncdhc-observation-fetus-liquor"
                    ]
                },
                "status": "final",
                "code": {
                    "coding": [
                        {
                            "system": "http://snomed.info/sct",
                            "code": "364354005"
                        }
                    ],
                    "text": "Fetus Liquor Assessment"
                },
                "subject": {
                    "reference": "urn:uuid:dd78393f-37ca-4738-81d6-d9595b2e5d0f",
                    "display": "Eve Bill"
                },
                "effectiveDateTime": "2020-02-11T14:36:03Z",
                "performer": [
                    {
                        "reference": "urn:uuid:dd78393f-37ca-4738-81d6-d9595b2e5d0d",
                        "display": "Examiner"
                    },
                    {
                        "reference": "urn:uuid:od78393f-37ca-4738-81d6-d9595b2e5d0f",
                        "display": "Organisation"
                    }
                ],
                "valueCodeableConcept": {
                    "coding": [
                        {
                            "system": "http://snomed.info/sct",
                            "code": "443938003",
                            "display": "Procedure carried out on subject"
                        }
                    ]
                },
                "interpretation": {
                    "coding": [
                        {
                            "system": "http://snomed.info/sct",
                            "code": "278092006",
                            "display": "Normal liquor volume"
                        }
                    ]
                }
            }
        },
        {
            "fullUrl": "urn:uuid:0308a72a8-df75-4484-ac89-ac4923f0020",
            "resource": {
                "resourceType": "DocumentReference",
                "id": "ncdhc-documentreference-clinical-notes-example",
                "meta": {
                    "versionId": "1",
                    "lastUpdated": "2019-10-31T00:00:00Z",
                    "profile": [
                        "http://hl7.org.au/fhir/ch/v1/StructureDefinition/ncdhc-documentreference-clinical-notes"
                    ]
                },
                "masterIdentifier": {
                    "system": "urn:ietf:rfc:3986",
                    "value": "urn:uuid:0h4151bd-1cbf-4d64-b09d-cd9187a4c6e1"
                },
                "status": "current",
                "type": {
                    "coding": [
                        {
                            "system": "http://hl7.org.au/fhir/ch/v1/CodeSystem/ncdhc-hi-type-1",
                            "code": "ANTVSTPRGRSNT",
                            "display": "Antenatal Visit Progress Note"
                        }
                    ],
                    "text": "Antenatal Visit Progress Note"
                },
                "class": {
                    "coding": [
                        {
                            "system": "http://hl7.org.au/fhir/ch/v1/CodeSystem/ncdhc-document-class-1",
                            "code": "CLNNT",
                            "display": "Clinical Note"
                        }
                    ],
                    "text": "Clinical Note"
                },
                "subject": {
                    "reference": "Patient/ncdhc-patient-expectant-mother-example",
                    "display": "Eve Bill"
                },
                "created": "2019-12-23",
                "indexed": "2019-12-23T12:30:02Z",
                "author": [
                    {
                        "reference": "Practitioner/3db74777-fd3d-4d3b-92ec-d405977a11a5",
                        "display": "Dr. Adam Dev"
                    }
                ],
                "description": "Antenatal Visit Progress Notes recorded at 2019-12-23.",
                "securityLabel": [
                    {
                        "coding": [
                            {
                                "system": "http://hl7.org/fhir/v3/Confidentiality",
                                "code": "N",
                                "display": "normal"
                            }
                        ]
                    }
                ],
                "content": [
                    {
                        "attachment": {
                            "contentType": "text/plain",
                            "language": "en-AU",
                            "data": "VGhpcyBpcyBhIHNhbXBsZSBDbGluaWNhIE5vdGU="
                        }
                    }
                ],
                "context": {
                    "encounter": {
                        "reference": "Encounter/ncdhc-dphr-encounter-example"
                    },
                    "period": {
                        "start": "2019-12-23T08:00:00+11:00",
                        "end": "2019-12-23T08:01:00+11:00"
                    }
                }
            }
        }
    ]
}