{
  "resourceType": "Bundle",
  "id": "ncdhc-hca-1-4weeks-view-summary",
  "meta": {
    "versionId": "1",
    "lastUpdated": "2019-10-31T00:00:00Z"
  },
  "identifier": {
    "system": "urn:ietf:rfc:3986",
    "value": "urn:uuid:0v4151bd-1cbf-4d64-b04d-cd9187a4c6e0"
  },
  "type": "document",
  "entry": [
    {
      "fullUrl": "https://ncdhc.health.gov.au/fhir/v1.0.0/Composition/780f219f-97a8-486d-99d9-ed631fe4fc57",
      "resource": {
        "resourceType": "Composition",
        "id": "780f219f-97a8-486d-99d9-ed631fe4fc57",
        "meta": {
          "versionId": "1",
          "lastUpdated": "2019-10-31T00:00:00Z",
          "profile": "http://hl7.org.au/fhir/ch/v1/StructureDefinition/ncdhc-composition-view-hca-14wks"
        },
        "status": "final",
        "type": {
          "coding": [
            {
              "system": "http://hl7.org.au/fhir/ch/v1/CodeSystem/ncdhc-hi-type-1",
              "code": "HEALTHCKASSMT04W",
              "display": "Health Check Assessment 0-4 weeks"
            }
          ],
          "text": "Health Check Assessment 0-4 weeks"
        },
        "class": {
          "coding": [
            {
              "system": "http://hl7.org.au/fhir/ch/v1/CodeSystem/ncdhc-document-class-1",
              "code": "HCAVIEW",
              "display": "Health Check Assessment View"
            }
          ],
          "text": "Health Check Assessment View"
        },
        "subject": {
          "reference": "https://ncdhc.health.gov.au/fhir/v1.0.0/Patient/patient-baby-example",
          "display": "Baby of Eve Bill"
        },
        "date": "2018-12-24T12:30:02Z",
        "author": [
          {
            "reference": "https://ncdhc.health.gov.au/fhir/v1.0.0/Device/ncdhc-device-child-data-hub-example",
            "display": "Child Data Hub"
          }
        ],
        "title": "1-4 Week",
        "confidentiality": "N",
        "attester": [
          {
            "mode": "professional",
            "time": "2018-12-24T12:30:02Z",
            "party": {
              "reference": "https://ncdhc.health.gov.au/fhir/v1.0.0/Organization/examiner-organization"
            }
          }
        ],
        "section": [
          {
            "title": "1-4 Week",
            "entry": [
              {
                "reference": "https://ncdhc.health.gov.au/fhir/v1.0.0/QuestionnaireResponse/hca-1-4wk-qa-en-s1"
              }
            ]
          }
        ]
      }
    },
    {
      "fullUrl": "https://ncdhc.health.gov.au/fhir/v1.0.0/Patient/patient-baby-example",
      "resource": {
        "resourceType": "Patient",
        "text": {
          "status": "generated",
          "div": "<div xmlns=\"http://www.w3.org/1999/xhtml\">\n\t\t\t\t\t\t\n<h1>Baby of Eve Bill</h1>\n\t\t\t\t\t\n</div>"
        },
        "id": "patient-baby",
        "meta": {
          "versionId": "1",
          "lastUpdated": "2018-12-27T16:13:03Z",
          "profile": "http://hl7.org.au/fhir/ch/v1/StructureDefinition/ncdhc-patient-baby"
        },
        "extension": [
          {
            "url": "http://hl7.org/fhir/StructureDefinition/birthPlace",
            "valueAddress": {
              "text": "Blacktown Hospital"
            }
          }
        ],
        "identifier": [
          {
            "type": {
              "coding": [
                {
                  "system": "http://hl7.org/fhir/v2/0203",
                  "code": "NI",
                  "display": "National unique individual identifier"
                }
              ],
              "text": "IHI"
            },
            "system": "http://ns.electronichealth.net.au/id/hi/ihi/1.0",
            "value": "8003608000024083"
          },
          {
            "type": {
              "coding": [
                {
                  "system": "http://hl7.org/fhir/v2/0203",
                  "code": "MR",
                  "display": "Medical Record Number"
                }
              ],
              "text": "Medical Record Number"
            },
            "system": "http://ns.electronichealth.net.au/id/hpio-scoped/medicalrecord/1.0",
            "value": "8003620000000000",
            "assigner": {
              "display": "Blacktown Hospital"
            }
          }
        ],
        "active": true,
        "name": [
          {
            "text": "Baby of Eve Bill",
            "family": "Bill",
            "given": [
              "Baby of Eve"
            ]
          }
        ],
        "gender": "female",
        "birthDate": "2018-12-24",
        "_birthDate": {
          "extension": [
            {
              "url": "http://hl7.org/fhir/StructureDefinition/patient-birthTime",
              "valueDateTime": "2018-12-24T14:35:45-05:00"
            }
          ]
        },
        "address": [
          {
            "text": "home",
            "line": [
              "31 Pacquola Street"
            ],
            "city": "Blacktown",
            "state": "NSW",
            "postalCode": "2148",
            "country": "Australia"
          }
        ],
        "contact": [
          {
            "relationship": [
              {
                "coding": [
                  {
                    "system": "http://hl7.org/fhir/v3/RoleCode",
                    "code": "MTH",
                    "display": "mother"
                  }
                ],
                "text": "Mother"
              }
            ],
            "name": {
              "text": "Eve Bill",
              "family": "Bill",
              "given": [
                "Eve"
              ]
            }
          },
          {
            "relationship": [
              {
                "coding": [
                  {
                    "system": "http://hl7.org/fhir/v3/RoleCode",
                    "code": "FTH",
                    "display": "father"
                  }
                ],
                "text": "Father"
              }
            ],
            "name": {
              "text": "Simmons Bill",
              "family": "Bill",
              "given": [
                "Simmons"
              ]
            }
          }
        ]
      }
    },
    {
      "fullUrl": "https://ncdhc.health.gov.au/fhir/v1.0.0/Organization/examiner-organization",
      "resource": {
        "resourceType": "Organization",
        "id": "od78393f-37ca-4738-81d6-d9595b2e5d0f",
        "text": {
          "status": "generated",
          "div": "<div xmlns=\"http://www.w3.org/1999/xhtml\"><p><b>Generated Narrative with Details</b></p><p><b>id</b>: od78393f-37ca-4738-81d6-d9595b2e5d0f</p><p><b>identifier</b>: ABN = 51824753556</p><p><b>type</b>: Healthcare Provider <span style=\"background: LightGoldenRodYellow\">(Details : {http://hl7.org/fhir/organization-type code 'prov' = 'Healthcare Provider', given as 'Healthcare Provider'})</span></p><p><b>name</b>: Blacktown Hospital</p><p><b>telecom</b>: enquiries@blacktownhospital.com.au(WORK)</p></div>"
        },
        "identifier": [
          {
            "type": {
              "text": "ABN"
            },
            "system": "http://hl7.org.au/id/abn",
            "value": "51824753556"
          }
        ],
        "type": [
          {
            "coding": [
              {
                "system": "http://hl7.org/fhir/organization-type",
                "code": "prov",
                "display": "Healthcare Provider"
              }
            ]
          }
        ],
        "name": "Blacktown Hospital",
        "telecom": [
          {
            "system": "email",
            "value": "enquiries@blacktownhospital.com.au",
            "use": "work"
          }
        ]
      }
    },
    {
      "fullUrl": "https://ncdhc.health.gov.au/fhir/v1.0.0/Device/ncdhc-device-child-data-hub-example",
      "resource": {
        "resourceType": "Device",
        "id": "ncdhc-device-child-data-hub-example",
        "meta": {
          "profile": [
            "http://hl7.org.au/fhir/StructureDefinition/au-device"
          ]
        },
        "text": {
          "status": "generated",
          "div": "<div xmlns=\"http://www.w3.org/1999/xhtml\">Child Data Hub</div>"
        },
        "version": "v1.0.0",
        "status": "active"
      }
    },
    {
      "fullUrl": "https://ncdhc.health.gov.au/fhir/v1.0.0/QuestionnaireResponse/hca-1-4wk-qa-en-s1",
      "resource": {
        "resourceType": "QuestionnaireResponse",
        "id": "hca-1-4wk-qa-en-s1",
        "meta": {
          "versionId": "1",
          "lastUpdated": "2019-12-11T14:36:03Z",
          "profile": [
            "http://hl7.org.au/fhir/ch/v1/StructureDefinition/ncdhc-questionnaireresponse-base"
          ]
        },
        "questionnaire": {
          "reference": "Questionnaire/hca-1-4wk-q-en-s1",
          "display": "1-4 Week"
        },
        "status": "completed",
        "subject": {
          "reference": "Patient/patient-baby-example"
        },
        "item": [
          {
            "id": "1.0.0.0",
            "linkId": "1",
            "text": "Venue",
            "subject": {
              "reference": "Encounter/ncdhc-encounter-example"
            },
            "answer": [
              {
                "valueString": "Blacktown CHC"
              }
            ]
          },
          {
            "id": "2.0.0.0",
            "linkId": "2",
            "text": "Date / Time",
            "subject": {
              "reference": "Encounter/ncdhc-encounter-example"
            },
            "answer": [
              {
                "valueDateTime": "2018-01-07T17:42:00-05:00"
              }
            ]
          },
          {
            "id": "3.0.0.0",
            "linkId": "3",
            "text": "Child's Age",
            "subject": {
              "reference": "Patient/patient-baby-example"
            },
            "answer": [
              {
                "valueString": "7 days"
              }
            ]
          },
          {
            "id": "4.0.0.0",
            "linkId": "20",
            "text": "Skin",
            "answer": [
              {
                "valueString": "Review",
                "item": [
                  {
                    "id": "4.1.0.1",
                    "linkId": "20.1",
                    "subject": {
                      "reference": "Observation/observation-skin-review-example"
                    },
                    "item": [
                      {
                        "id": "4.1.1.1",
                        "linkId": "20.1.1",
                        "text": "Outcome",
                        "answer": [
                          {
                            "valueCoding": {
                              "system": "http://snomed.info/sct",
                              "code": "1222461000168103",
                              "display": "Follow-up review of patient requested"
                            }
                          }
                        ]
                      },
                      {
                        "id": "4.1.2.1",
                        "linkId": "20.1.2",
                        "text": "Comments",
                        "answer": [
                          {
                            "valueString": "Mascular rash that was detected at birth still present on the infants left arm.Review required at next health check assessment."
                          }
                        ]
                      }
                    ]
                  }
                ]
              }
            ]
          },
          {
            "id": "5.0.0.0",
            "linkId": "4",
            "text": "Weight",
            "answer": [
              {
                "valueString": "Normal",
                "item": [
                  {
                    "id": "5.1.0.1",
                    "linkId": "4.1",
                    "subject": {
                      "reference": "Observation/ncdhc-observation-vitalsign-bodyweight-example"
                    },
                    "item": [
                      {
                        "id": "5.1.1.1",
                        "linkId": "4.1.1",
                        "text": "Value",
                        "answer": [
                          {
                            "valueString": "4.12kg"
                          }
                        ]
                      },
                      {
                        "id": "5.1.2.1",
                        "linkId": "4.1.2",
                        "text": "Outcome",
                        "answer": [
                          {
                            "valueCoding": {
                              "system": "http://snomed.info/sct",
                              "code": "17621005",
                              "display": "Normal"
                            }
                          }
                        ]
                      },
                      {
                        "id": "5.1.3.1",
                        "linkId": "4.1.3",
                        "text": "Comments",
                        "answer": [
                          {
                            "valueString": "Comment goes here"
                          }
                        ]
                      }
                    ]
                  }
                ]
              }
            ]
          },
          {
            "id": "6.0.0.0",
            "linkId": "5",
            "text": "Length",
            "answer": [
              {
                "valueString": "Normal",
                "item": [
                  {
                    "id": "6.1.0.1",
                    "linkId": "5.1",
                    "subject": {
                      "reference": "Observation/observation-vitalsign-bodyheight-example"
                    },
                    "item": [
                      {
                        "id": "6.1.1.1",
                        "linkId": "5.1.1",
                        "text": "Value",
                        "answer": [
                          {
                            "valueString": "53cm"
                          }
                        ]
                      },
                      {
                        "id": "6.1.2.1",
                        "linkId": "5.1.2",
                        "text": "Outcome",
                        "answer": [
                          {
                            "valueCoding": {
                              "system": "http://snomed.info/sct",
                              "code": "17621005",
                              "display": "Normal"
                            }
                          }
                        ]
                      },
                      {
                        "id": "6.1.3.1",
                        "linkId": "5.1.3",
                        "text": "Comments",
                        "answer": [
                          {
                            "valueString": "NA"
                          }
                        ]
                      }
                    ]
                  }
                ]
              }
            ]
          },
          {
            "id": "7.0.0.0",
            "linkId": "6",
            "text": "Head Circumference",
            "answer": [
              {
                "valueString": "Normal",
                "item": [
                  {
                    "id": "7.1.0.1",
                    "linkId": "6.1",
                    "subject": {
                      "reference": "Observation/observation-vitalsign-headcircum-example"
                    },
                    "item": [
                      {
                        "id": "7.1.1.1",
                        "linkId": "6.1.1",
                        "text": "Value",
                        "answer": [
                          {
                            "valueString": "36.6cm"
                          }
                        ]
                      },
                      {
                        "id": "7.1.2.1",
                        "linkId": "6.1.2",
                        "text": "Outcome",
                        "answer": [
                          {
                            "valueCoding": {
                              "system": "http://snomed.info/sct",
                              "code": "17621005",
                              "display": "Normal"
                            }
                          }
                        ]
                      },
                      {
                        "id": "7.1.3.1",
                        "linkId": "6.1.3",
                        "text": "Comments",
                        "answer": [
                          {
                            "valueString": "Comment goes here"
                          }
                        ]
                      }
                    ]
                  }
                ]
              }
            ]
          },
          {
            "id": "8.0.0.0",
            "linkId": "7",
            "text": "Head Shape",
            "answer": [
              {
                "valueString": "Not available",
                "item": [
                  {
                    "id": "8.1.0.1",
                    "linkId": "7.1",
                    "subject": {
                      "reference": "Observation/observation-head-shape-normal-example"
                    },
                    "item": [
                      {
                        "id": "8.1.1.1",
                        "linkId": "7.1.1",
                        "text": "Outcome",
                        "answer": [
                          {
                            "valueCoding": {
                              "system": "http://hl7.org/fhir/data-absent-reason",
                              "code": "not-performed",
                              "display": "Not Performed"
                            }
                          }
                        ]
                      },
                      {
                        "id": "8.1.2.1",
                        "linkId": "7.1.2",
                        "text": "Comments",
                        "answer": [
                          {
                            "valueString": "Comment goes here"
                          }
                        ]
                      }
                    ]
                  }
                ]
              }
            ]
          },
          {
            "id": "9.0.0.0",
            "linkId": "8",
            "text": "Fontanelles",
            "answer": [
              {
                "valueString": "Normal",
                "item": [
                  {
                    "id": "9.1.0.1",
                    "linkId": "8.1",
                    "subject": {
                      "reference": "Observation/observation-fontanelles-normal-example"
                    },
                    "item": [
                      {
                        "id": "9.1.1.1",
                        "linkId": "8.1.1",
                        "text": "Outcome",
                        "answer": [
                          {
                            "valueCoding": {
                              "system": "http://snomed.info/sct",
                              "code": "17621005",
                              "display": "Normal"
                            }
                          }
                        ]
                      },
                      {
                        "id": "9.1.2.1",
                        "linkId": "8.1.2",
                        "text": "Comments",
                        "answer": [
                          {
                            "valueString": "Comment goes here"
                          }
                        ]
                      }
                    ]
                  }
                ]
              }
            ]
          },
          {
            "id": "10.0.0.0",
            "linkId": "9",
            "text": "Ears",
            "answer": [
              {
                "valueString": "Show Details",
                "item": [
                  {
                    "id": "10.1.0.1",
                    "linkId": "9.1",
                    "subject": {
                      "reference": "Observation/observation-ears-normal-example"
                    },
                    "item": [
                      {
                        "id": "10.1.1.1",
                        "linkId": "9.1.1",
                        "text": "Left",
                        "answer": [
                          {
                            "valueCoding": {
                              "system": "http://snomed.info/sct",
                              "code": "17621005",
                              "display": "Normal"
                            }
                          }
                        ]
                      },
                      {
                        "id": "10.1.2.1",
                        "linkId": "9.1.2",
                        "text": "Right",
                        "answer": [
                          {
                            "valueCoding": {
                              "system": "http://snomed.info/sct",
                              "code": "17621005",
                              "display": "Normal"
                            }
                          }
                        ]
                      },
                      {
                        "id": "10.1.3.1",
                        "linkId": "9.1.3",
                        "text": "Comments",
                        "answer": [
                          {
                            "valueString": "Comment goes here"
                          }
                        ]
                      }
                    ]
                  }
                ]
              }
            ]
          },
          {
            "id": "11.0.0.0",
            "linkId": "10",
            "text": "Eyes",
            "answer": [
              {
                "valueString": "Show Details",
                "item": [
                  {
                    "id": "11.1.0.1",
                    "linkId": "10.1",
                    "subject": {
                      "reference": "Observation/observation-eyes-normal-example"
                    },
                    "item": [
                      {
                        "id": "11.1.1.1",
                        "linkId": "10.1.1",
                        "text": "Left",
                        "answer": [
                          {
                            "valueCoding": {
                              "system": "http://snomed.info/sct",
                              "code": "17621005",
                              "display": "Normal"
                            }
                          }
                        ]
                      },
                      {
                        "id": "11.1.2.1",
                        "linkId": "10.1.2",
                        "text": "Right",
                        "answer": [
                          {
                            "valueCoding": {
                              "system": "http://snomed.info/sct",
                              "code": "17621005",
                              "display": "Normal"
                            }
                          }
                        ]
                      },
                      {
                        "id": "11.1.3.1",
                        "linkId": "10.1.3",
                        "text": "Comments",
                        "answer": [
                          {
                            "valueString": "Both eyes assessed as normal"
                          }
                        ]
                      }
                    ]
                  }
                ]
              }
            ]
          },
          {
            "id": "12.0.0.0",
            "linkId": "11",
            "text": "Mouth Palate",
            "answer": [
              {
                "valueString": "Normal",
                "item": [
                  {
                    "id": "12.1.0.1",
                    "linkId": "11.1",
                    "subject": {
                      "reference": "Observation/observation-mouthpalate-normal-example"
                    },
                    "item": [
                      {
                        "id": "12.1.1.1",
                        "linkId": "11.1.1",
                        "text": "Outcome",
                        "answer": [
                          {
                            "valueCoding": {
                              "system": "http://snomed.info/sct",
                              "code": "17621005",
                              "display": "Normal"
                            }
                          }
                        ]
                      },
                      {
                        "id": "12.1.2.1",
                        "linkId": "11.1.2",
                        "text": "Comments",
                        "answer": [
                          {
                            "valueString": "Comment goes here"
                          }
                        ]
                      }
                    ]
                  }
                ]
              }
            ]
          },
          {
            "id": "13.0.0.0",
            "linkId": "12",
            "text": "Cardiovascular",
            "answer": [
              {
                "valueString": "Not available",
                "item": [
                  {
                    "id": "13.1.0.1",
                    "linkId": "12.1",
                    "subject": {
                      "reference": "Observation/observation-cardiovascular-normal-example"
                    },
                    "item": [
                      {
                        "id": "13.1.1.1",
                        "linkId": "12.1.1",
                        "text": "Outcome",
                        "answer": [
                          {
                            "valueCoding": {
                              "system": "http://hl7.org/fhir/data-absent-reason",
                              "code": "not-performed",
                              "display": "Not Performed"
                            }
                          }
                        ]
                      },
                      {
                        "id": "13.1.2.1",
                        "linkId": "12.1.2",
                        "text": "Comments",
                        "answer": [
                          {
                            "valueString": "Comment goes here"
                          }
                        ]
                      }
                    ]
                  }
                ]
              }
            ]
          },
          {
            "id": "14.0.0.0",
            "linkId": "13",
            "text": "Reflexes",
            "answer": [
              {
                "valueString": "Normal",
                "item": [
                  {
                    "id": "14.1.0.1",
                    "linkId": "13.1",
                    "subject": {
                      "reference": "Observation/observation-reflexes-normal-example"
                    },
                    "item": [
                      {
                        "id": "14.1.1.1",
                        "linkId": "13.1.1",
                        "text": "Outcome",
                        "answer": [
                          {
                            "valueCoding": {
                              "system": "http://snomed.info/sct",
                              "code": "17621005",
                              "display": "Normal"
                            }
                          }
                        ]
                      },
                      {
                        "id": "14.1.2.1",
                        "linkId": "13.1.2",
                        "text": "Comments",
                        "answer": [
                          {
                            "valueString": "Comment goes here"
                          }
                        ]
                      }
                    ]
                  }
                ]
              }
            ]
          },
          {
            "id": "15.0.0.0",
            "linkId": "14",
            "text": "Femoral Pulse",
            "answer": [
              {
                "valueString": "Show Details",
                "item": [
                  {
                    "id": "15.1.0.1",
                    "linkId": "14.1",
                    "subject": {
                      "reference": "Observation/observation-femoralpulse-normal-example"
                    },
                    "item": [
                      {
                        "id": "15.1.1.1",
                        "linkId": "14.1.1",
                        "text": "Left",
                        "answer": [
                          {
                            "valueCoding": {
                              "system": "http://snomed.info/sct",
                              "code": "17621005",
                              "display": "Normal"
                            }
                          }
                        ]
                      },
                      {
                        "id": "15.1.2.1",
                        "linkId": "14.1.2",
                        "text": "Right",
                        "answer": [
                          {
                            "valueCoding": {
                              "system": "http://snomed.info/sct",
                              "code": "17621005",
                              "display": "Normal"
                            }
                          }
                        ]
                      },
                      {
                        "id": "15.1.3.1",
                        "linkId": "14.1.3",
                        "text": "Comments",
                        "answer": [
                          {
                            "valueString": "Both femoral pulses assessed as normal"
                          }
                        ]
                      }
                    ]
                  }
                ]
              }
            ]
          },
          {
            "id": "16.0.0.0",
            "linkId": "15",
            "text": "Development",
            "answer": [
              {
                "valueString": "Normal",
                "item": [
                  {
                    "id": "16.1.0.1",
                    "linkId": "15.1",
                    "subject": {
                      "reference": "Observation/observation-development-normal-example"
                    },
                    "item": [
                      {
                        "id": "16.1.1.1",
                        "linkId": "15.1.1",
                        "text": "Outcome",
                        "answer": [
                          {
                            "valueCoding": {
                              "system": "http://snomed.info/sct",
                              "code": "17621005",
                              "display": "Normal"
                            }
                          }
                        ]
                      },
                      {
                        "id": "16.1.2.1",
                        "linkId": "15.1.2",
                        "text": "Comments",
                        "answer": [
                          {
                            "valueString": "Comment goes here"
                          }
                        ]
                      }
                    ]
                  }
                ]
              }
            ]
          },
          {
            "id": "17.0.0.0",
            "linkId": "16",
            "text": "Umbilicus",
            "answer": [
              {
                "valueString": "Normal",
                "item": [
                  {
                    "id": "17.1.0.1",
                    "linkId": "16.1",
                    "subject": {
                      "reference": "Observation/observation-umbilicus-normal-example"
                    },
                    "item": [
                      {
                        "id": "17.1.1.1",
                        "linkId": "16.1.1",
                        "text": "Outcome",
                        "answer": [
                          {
                            "valueCoding": {
                              "system": "http://snomed.info/sct",
                              "code": "17621005",
                              "display": "Normal"
                            }
                          }
                        ]
                      },
                      {
                        "id": "17.1.2.1",
                        "linkId": "16.1.2",
                        "text": "Comments",
                        "answer": [
                          {
                            "valueString": "Comment goes here"
                          }
                        ]
                      }
                    ]
                  }
                ]
              }
            ]
          },
          {
            "id": "18.0.0.0",
            "linkId": "17",
            "text": "Testes fully descended",
            "answer": [
              {
                "valueString": "Not applicable",
                "item": [
                  {
                    "id": "18.1.0.1",
                    "linkId": "17.1",
                    "subject": {
                      "reference": "Observation/observation-testes-normal-example"
                    },
                    "item": [
                      {
                        "id": "18.1.1.1",
                        "linkId": "17.1.1",
                        "text": "Left",
                        "answer": [
                          {
                            "valueCoding": {
                              "system": "http://hl7.org/fhir/data-absent-reason",
                              "code": "not-performed",
                              "display": "Not Performed"
                            }
                          }
                        ]
                      },
                      {
                        "id": "18.1.2.1",
                        "linkId": "17.1.2",
                        "text": "Right",
                        "answer": [
                          {
                            "valueCoding": {
                              "system": "http://hl7.org/fhir/data-absent-reason",
                              "code": "not-performed",
                              "display": "Not Performed"
                            }
                          }
                        ]
                      },
                      {
                        "id": "18.1.3.1",
                        "linkId": "17.1.3",
                        "text": "Comments",
                        "answer": [
                          {
                            "valueString": "Comments go here"
                          }
                        ]
                      }
                    ]
                  }
                ]
              }
            ]
          },
          {
            "id": "19.0.0.0",
            "linkId": "18",
            "text": "Genitalia",
            "answer": [
              {
                "valueString": "Normal",
                "item": [
                  {
                    "id": "19.1.0.1",
                    "linkId": "18.1",
                    "subject": {
                      "reference": "Observation/observation-genitalia-normal-example"
                    },
                    "item": [
                      {
                        "id": "19.1.1.1",
                        "linkId": "18.1.1",
                        "text": "Outcome",
                        "answer": [
                          {
                            "valueCoding": {
                              "system": "http://snomed.info/sct",
                              "code": "17621005",
                              "display": "Normal"
                            }
                          }
                        ]
                      },
                      {
                        "id": "19.1.2.1",
                        "linkId": "18.1.2",
                        "text": "Comments",
                        "answer": [
                          {
                            "valueString": "Comment goes here"
                          }
                        ]
                      }
                    ]
                  }
                ]
              }
            ]
          },
          {
            "id": "20.0.0.0",
            "linkId": "19",
            "text": "Anus",
            "answer": [
              {
                "valueString": "Not available",
                "item": [
                  {
                    "id": "20.1.0.1",
                    "linkId": "19.1",
                    "subject": {
                      "reference": "Observation/observation-anus-normal-example"
                    },
                    "item": [
                      {
                        "id": "20.1.1.1",
                        "linkId": "19.1.1",
                        "text": "Outcome",
                        "answer": [
                          {
                            "valueCoding": {
                              "system": "http://hl7.org/fhir/data-absent-reason",
                              "code": "not-performed",
                              "display": "Not Performed"
                            }
                          }
                        ]
                      },
                      {
                        "id": "20.1.2.1",
                        "linkId": "19.1.2",
                        "text": "Comments",
                        "answer": [
                          {
                            "valueString": "Comment goes here"
                          }
                        ]
                      }
                    ]
                  }
                ]
              }
            ]
          },
          {
            "id": "21.0.0.0",
            "linkId": "21",
            "text": "Hips",
            "answer": [
              {
                "valueString": "Normal",
                "item": [
                  {
                    "id": "21.1.0.1",
                    "linkId": "21.1",
                    "subject": {
                      "reference": "Observation/observation-hips-normal-example"
                    },
                    "item": [
                      {
                        "id": "21.1.1.1",
                        "linkId": "21.1.1",
                        "text": "Outcome",
                        "answer": [
                          {
                            "valueCoding": {
                              "system": "http://snomed.info/sct",
                              "code": "17621005",
                              "display": "Normal"
                            }
                          }
                        ]
                      },
                      {
                        "id": "21.1.2.1",
                        "linkId": "21.1.2",
                        "text": "Comments",
                        "answer": [
                          {
                            "valueString": "Comment goes here"
                          }
                        ]
                      }
                    ]
                  }
                ]
              }
            ]
          },
          {
            "id": "22.0.0.0",
            "linkId": "22",
            "text": "Abdomen",
            "answer": [
              {
                "valueString": "Normal",
                "item": [
                  {
                    "id": "22.1.0.1",
                    "linkId": "22.1",
                    "subject": {
                      "reference": "Observation/observation-abdomen-normal-example"
                    },
                    "item": [
                      {
                        "id": "22.1.1.1",
                        "linkId": "22.1.1",
                        "text": "Outcome",
                        "answer": [
                          {
                            "valueCoding": {
                              "system": "http://snomed.info/sct",
                              "code": "17621005",
                              "display": "Normal"
                            }
                          }
                        ]
                      },
                      {
                        "id": "22.1.2.1",
                        "linkId": "22.1.2",
                        "text": "Comments",
                        "answer": [
                          {
                            "valueString": "Comment goes here"
                          }
                        ]
                      }
                    ]
                  }
                ]
              }
            ]
          },
          {
            "id": "23.0.0.0",
            "linkId": "23",
            "text": "Examiner",
            "answer": [
              {
                "valueString": "Judith NORMAN",
                "item": [
                  {
                    "id": "23.1.0.1",
                    "linkId": "23.1",
                    "text": "Designation",
                    "subject": {
                      "reference": "Practitioner/examiner-practitioner"
                    },
                    "answer": [
                      {
                        "valueString": "Child and Family Health Nurse"
                      }
                    ]
                  },
                  {
                    "id": "23.1.0.1",
                    "linkId": "23.2",
                    "text": "Venue",
                    "subject": {
                      "reference": "Encounter/ncdhc-encounter-example"
                    },
                    "answer": [
                      {
                        "valueString": "Blacktown CHC"
                      }
                    ]
                  },
                  {
                    "id": "23.1.0.1",
                    "linkId": "23.3",
                    "text": "Date & Time",
                    "subject": {
                      "reference": "Encounter/ncdhc-encounter-example"
                    },
                    "answer": [
                      {
                        "valueDateTime": "2018-01-07T14:15:00-05:00"
                      }
                    ]
                  }
                ]
              }
            ]
          }
        ]
      }
    },
    {
      "fullUrl": "urn:uuid:od78393f-37ca-4738-81d6-d9595b2e5d0f",
      "resource": {
        "resourceType": "Provenance",
        "id": "od78393f-37ca-4738-81d6-d9595b2e5d0f",
        "target": [
          {
            "reference": "Composition/780f219f-97a8-486d-99d9-ed631fe4fc57"
          },
          {
            "reference": "Practitioner/examiner-practitioner"
          },
          {
            "reference": "Patient/patient-baby-example"
          },
          {
            "reference": "Encounter/ncdhc-encounter-example"
          },
          {
            "reference": "Observation/ncdhc-observation-vitalsign-bodyweight-example"
          },
          {
            "reference": "Observation/observation-vitalsign-bodyheight-example"
          },
          {
            "reference": "Observation/observation-vitalsign-headcircum-example"
          },
          {
            "reference": "Observation/observation-ears-normal-example"
          },
          {
            "reference": "Observation/observation-eyes-normal-example"
          },
          {
            "reference": "Observation/observation-skin-review-example"
          },
          {
            "reference": "Observation/observation-head-shape-normal-example"
          },
          {
            "reference": "Observation/observation-fontanelles-normal-example"
          },
          {
            "reference": "Observation/observation-mouthpalate-normal-example"
          },
          {
            "reference": "Observation/observation-reflexes-normal-example"
          },
          {
            "reference": "Observation/observation-femoralpulse-normal-example"
          },
          {
            "reference": "Observation/observation-development-normal-example"
          },
          {
            "reference": "Observation/observation-umbilicus-normal-example"
          },
          {
            "reference": "Observation/observation-testes-normal-example"
          },
          {
            "reference": "Observation/observation-genitalia-normal-example"
          },
          {
            "reference": "Observation/observation-anus-normal-example"
          },
          {
            "reference": "Observation/observation-hips-normal-example"
          },
          {
            "reference": "Observation/observation-abdomen-normal-example"
          }
        ],
        "period": {
          "start": "2019-05-27",
          "end": "2019-05-27"
        },
        "recorded": "2019-05-27T08:39:24+10:00",
        "agent": [
          {
            "role": [
              {
                "coding": [
                  {
                    "system": "http://hl7.org/fhir/v3/ParticipationType",
                    "code": "DEV"
                  }
                ]
              }
            ],
            "whoReference": {
              "reference": "Device/ncdhc-nsw-jt"
            }
          }
        ],
        "entity": [
          {
            "role": "source",
            "whatReference": {
              "reference": "DocumentReference/ncdhc-doc-ref-current-example",
              "display": "Reference to the  FHIR Document in repository"
            }
          }
        ]
      }
    }
  ]
}