{
  "resourceType": "Bundle",
  "id": "ncdhc-document-nb-discharge-example",
  "meta": {
    "profile": [
      "http://build.fhir.org/ig/hl7au/au-fhir-childhealth/StructureDefinition/ncdhc-bundle-document"
    ]
  },
  "type": "document",
  "identifier": {
    "system": "urn:ietf:rfc:3986",
    "value": "urn:uuid:0c3151bd-1cbf-4d64-b04d-cd9187a4c6e0"
  },
  "timestamp": "2018-12-27T16:13:03+10:00",
  "entry": [
    {
      "fullUrl": "urn:uuid:a01bacd2-bb5c-11ea-b3de-0003ac130000",
      "resource": {
        "resourceType": "Composition",
        "id": "a01bacd2-bb5c-11ea-b3de-0003ac130000",
        "meta": {
          "profile": [
            "http://build.fhir.org/ig/hl7au/au-fhir-childhealth/StructureDefinition/ncdhc-composition-document-nb-discharge"
          ]
        },
        "title": "Newborn Discharge",
        "type": {
          "coding": [
            {
              "code": "NEWBRNDSCHRG",
              "system": "http://hl7.org.au/fhir/ch/v1/CodeSystem/ncdhc-hi-type-1",
              "display": "Newborn Discharge"
            }
          ]
        },
        "section": [
          {
            "title": "Hearing assessment",
            "mode": "snapshot",
            "code": {
              "coding": [
                {
                  "code": "427247008",
                  "system": "http://snomed.info/sct",
                  "display": "Hearing assessment"
                }
              ]
            },
            "entry": [
              {
                "reference": "Observation/h01bacd2-ob1c-01ea-b3de-0012ac130000"
              }
            ]
          }
        ],
        "status": "final",
        "subject": {
          "reference": "Patient/a01bacd2-pt5c-11ea-b3de-0242ac130001",
          "display": "Child of Eve Bill"
        },
        "encounter": {
          "reference": "Encounter/a01bacd2-ec5c-11ea-b3de-0003ac130004",
          "display": "Consultation on 12th Aug 2020 at Blacktown Hospital"
        },
        "date": "2020-08-12T16:13:03+10:00",
        "author": [
          {
            "reference": "PractitionerRole/p01bacd2-pr5c-11ea-b3de-0242ac130003",
            "display": "Helen Mayo"
          }
        ],
        "attester": [
          {
            "mode": "professional",
            "party": {
              "reference": "Organization/o01bacd2-or5c-11ea-b3de-0242ac130002",
              "display": "Downunder Hospital"
            }
          }
        ],
        "custodian": {
          "reference": "Organization/o01bacd2-or5c-11ea-b3de-0242ac130002",
          "display": "Downunder Hospital"
        }
      }
    },
    {
      "fullUrl": "urn:uuid:a01bacd2-pt5c-11ea-b3de-0242ac130001",
      "resource": {
        "resourceType": "Patient",
        "id": "a01bacd2-pt5c-11ea-b3de-0242ac130001",
        "meta": {
          "profile": [
            "http://build.fhir.org/ig/hl7au/au-fhir-childhealth/StructureDefinition/ncdhc-patient-child"
          ]
        },
        "identifier": [
          {
            "system": "http://ns.electronichealth.net.au/id/hi/ihi/1.0",
            "type": {
              "coding": [
                {
                  "system": "http://terminology.hl7.org/CodeSystem/v2-0203",
                  "code": "NI",
                  "display": "National unique individual identifier"
                }
              ],
              "text": "IHI"
            },
            "value": "8003608166690503"
          },
          {
            "type": {
              "coding": [
                {
                  "system": "http://terminology.hl7.org/CodeSystem/v2-0203",
                  "code": "MR",
                  "display": "Medical record number"
                }
              ],
              "text": "Medical Record Number"
            },
            "system": "http://ns.electronichealth.net.au/id/hpio-scoped/medicalrecord/1.0/8003620000000000",
            "value": "02134000",
            "assigner": {
              "display": "Blacktown Hospital"
            }
          }
        ],
        "contact": [
          {
            "relationship": [
              {
                "coding": [
                  {
                    "code": "MTH",
                    "system": "http://terminology.hl7.org/CodeSystem/v3-RoleCode"
                  }
                ]
              }
            ],
            "name": {
              "given": [
                "Eva"
              ],
              "family": "Bill"
            }
          }
        ],
        "active": true,
        "name": [
          {
            "use": "temp",
            "given": [
              "Baby Of Eve"
            ],
            "family": "Bill"
          }
        ],
        "gender": "female",
        "birthDate": "2020-01-01"
      }
    },
    {
      "fullUrl": "urn:uuid:o01bacd2-or5c-11ea-b3de-0242ac130002",
      "resource": {
        "resourceType": "Organization",
        "id": "o01bacd2-or5c-11ea-b3de-0242ac130002",
        "meta": {
          "profile": [
            "http://build.fhir.org/ig/hl7au/au-fhir-childhealth/StructureDefinition/ncdhc-organisation"
          ]
        },
        "identifier": [
          {
            "type": {
              "coding": [
                {
                  "system": "http://terminology.hl7.org.au/CodeSystem/v2-0203",
                  "code": "NOI",
                  "display": "National Organisation Identifier"
                }
              ],
              "text": "HPI-O"
            },
            "system": "http://ns.electronichealth.net.au/id/hi/hpio/1.0",
            "value": "8003621566684455"
          }
        ],
        "active": true,
        "name": "Downunder Hospital"
      }
    },
    {
      "fullUrl": "urn:uuid:p01bacd2-or5c-11ea-b3de-0242ac130002",
      "resource": {
        "resourceType": "Practitioner",
        "id": "p01bacd2-or5c-11ea-b3de-0242ac130002",
        "meta": {
          "profile": [
            "http://build.fhir.org/ig/hl7au/au-fhir-childhealth/StructureDefinition/ncdhc-practitioner"
          ]
        },
        "identifier": [
          {
            "type": {
              "coding": [
                {
                  "system": "http://terminology.hl7.org/CodeSystem/v2-0203",
                  "code": "NPI",
                  "display": "National provider identifier"
                }
              ],
              "text": "HPI-I"
            },
            "system": "http://ns.electronichealth.net.au/id/hi/hpii/1.0",
            "value": "8003619900015717"
          }
        ],
        "active": true,
        "name": [
          {
            "given": [
              "Helen"
            ],
            "family": "Mayo"
          }
        ]
      }
    },
    {
      "fullUrl": "urn:uuid:p01bacd2-pr5c-11ea-b3de-0242ac130003",
      "resource": {
        "resourceType": "PractitionerRole",
        "id": "p01bacd2-pr5c-11ea-b3de-0242ac130003",
        "meta": {
          "profile": [
            "http://build.fhir.org/ig/hl7au/au-fhir-childhealth/StructureDefinition/ncdhc-practitioner-role"
          ]
        },
        "identifier": [
          {
            "type": {
              "coding": [
                {
                  "system": "http://terminology.hl7.org.au/CodeSystem/v2-0203",
                  "code": "NPIO",
                  "display": "National Provider at Organisation Identifier"
                }
              ],
              "text": "NPIO"
            },
            "system": "http://hl7.org.au/id/npio",
            "value": "8003619900015717@8003621566684455"
          }
        ],
        "active": true,
        "practitioner": {
          "reference": "Practitioner/p01bacd2-or5c-11ea-b3de-0242ac130002"
        },
        "organization": {
          "reference": "Organization/o01bacd2-or5c-11ea-b3de-0242ac130002"
        },
        "specialty": [
          {
            "coding": [
              {
                "code": "408443003",
                "system": "http://snomed.info/sct",
                "display": "General medical practice"
              }
            ]
          }
        ]
      }
    },
    {
      "fullUrl": "urn:uuid:a01bacd2-ec5c-11ea-b3de-0003ac130004",
      "resource": {
        "resourceType": "Encounter",
        "id": "a01bacd2-ec5c-11ea-b3de-0003ac130004",
        "meta": {
          "profile": [
            "http://build.fhir.org/ig/hl7au/au-fhir-childhealth/StructureDefinition/ncdhc-encounter-cdhr"
          ]
        },
        "status": "finished",
        "class": {
          "code": "AMB",
          "system": "http://terminology.hl7.org/CodeSystem/v3-ActCode",
          "display": "ambulatory"
        },
        "subject": {
          "reference": "Patient/a01bacd2-pt5c-11ea-b3de-0242ac130001",
          "display": "Child of Eve Bill"
        },
        "period": {
          "start": "2020-09-30T16:13:03+10:00",
          "end": "2020-09-30T16:13:03+10:00"
        },
        "contained": [
          {
            "resourceType": "Location",
            "id": "l01bacd2-ec5c-11ea-b3de-0003ac130004",
            "name": "Blacktown Hospital"
          }
        ],
        "location": [
          {
            "location": {
              "reference": "#l01bacd2-ec5c-11ea-b3de-0003ac130004",
              "display": "Blacktown Hospital"
            },
            "status": "completed"
          }
        ]
      }
    },
    {
      "fullUrl": "urn:uuid:h01bacd2-ob1c-01ea-b3de-0012ac130000",
      "resource": {
        "resourceType": "Observation",
        "id": "h01bacd2-ob1c-01ea-b3de-0012ac130000",
        "meta": {
          "profile": [
            "http://build.fhir.org/ig/hl7au/au-fhir-childhealth/StructureDefinition/ncdhc-observation-nb-hearing-screen"
          ]
        },
        "code": {
          "coding": [
            {
              "code": "427247008",
              "system": "http://snomed.info/sct",
              "display": "Hearing assessment"
            }
          ]
        },
        "component": [
          {
            "code": {
              "coding": [
                {
                  "code": "25577004",
                  "system": "http://snomed.info/sct",
                  "display": "Right ear structure"
                }
              ]
            },
            "valueCodeableConcept": {
              "coding": [
                {
                  "code": "183924009",
                  "system": "http://snomed.info/sct",
                  "display": "Referral needed"
                }
              ]
            }
          },
          {
            "code": {
              "coding": [
                {
                  "code": "89644007",
                  "system": "http://snomed.info/sct",
                  "display": "Left ear structure"
                }
              ]
            },
            "valueCodeableConcept": {
              "coding": [
                {
                  "code": "183924009",
                  "system": "http://snomed.info/sct",
                  "display": "Referral needed"
                }
              ]
            }
          }
        ],
        "status": "final",
        "subject": {
          "reference": "Patient/a01bacd2-pt5c-11ea-b3de-0242ac130001",
          "display": "Baby of Eve Bill"
        },
        "effectiveDateTime": "2020-08-21T16:13:03+10:00",
        "valueCodeableConcept": {
          "coding": [
            {
              "code": "443938003",
              "system": "http://snomed.info/sct",
              "display": "Procedure carried out on subject"
            }
          ]
        },
        "performer": [
          {
            "reference": "PractitionerRole/p01bacd2-pr5c-11ea-b3de-0242ac130003",
            "display": "Examiner"
          },
          {
            "reference": "Organization/o01bacd2-or5c-11ea-b3de-0242ac130002",
            "display": "Clinical Responsible Organisation"
          }
        ],
        "hasMember": [
          {
            "reference": "Observation/h01bacd2-ob1c-01ea-b3de-0012ac230000",
            "display": "Referral to audiologist"
          }
        ]
      }
    }
  ]
}
