{
  "resourceType": "Bundle",
  "id": "ncdhc-document-clinical-observation-example",
  "meta": {
    "profile": [
      "http://build.fhir.org/ig/hl7au/au-fhir-childhealth/StructureDefinition/ncdhc-bundle-clinical-observation-document"
    ]
  },
  "type": "document",
  "identifier": {
    "system": "urn:ietf:rfc:3986",
    "value": "urn:uuid:0c3151bd-1abf-4d67-e04g-cd1017a4c6e0"
  },
  "timestamp": "2020-07-10T16:13:03+10:00",
  "entry": [
    {
      "fullUrl": "urn:uuid:0a645a42-fe48-c001-0001-cdhr00hi0049",
      "resource": {
        "resourceType": "Composition",
        "id": "0a645a42-fe48-c001-0001-cdhr00hi0049",
        "meta": {
          "profile": [
            "http://build.fhir.org/ig/hl7au/au-fhir-childhealth/StructureDefinition/ncdhc-composition-document-clinical-observation"
          ]
        },
        "title": "Clinical Observation",
        "type": {
          "coding": [
            {
              "code": "CLINICOBS",
              "system": "https://healthterminologies.gov.au/fhir/CodeSystem/ncdhc-hi-type-2",
			  "display": "Clinician Observation"
            }
          ]
        },
        "category": [
          {
            "coding": [
              {
                "code": "CLNOBS",
                "system": "https://healthterminologies.gov.au/fhir/CodeSystem/ncdhc-hi-category-1",
				"display": "Clinician Observation"
              }
            ]
          }
        ],
        "section": [
          {
            "code": {
              "coding": [
                {
                  "code": "118227000",
                  "system": "http://snomed.info/sct",
                  "display": "Vital signs finding"
                }
              ]
            },
            "mode": "snapshot",
            "title": "Vital signs Finding",
            "entry": [
              {
                "reference": "Observation/0a645a42-fe48-o001-0001-cdhr00hi0049",
                "display": "Child's Weight"
              },
              {
                "reference": "Observation/0a645a42-fe48-o002-0001-cdhr00hi0049",
                "display": "Child's Length"
              },
              {
                "reference": "Observation/0a645a42-fe48-o003-0001-cdhr00hi0049",
                "display": "Head Circumference"
              },
              {
                "reference": "Observation/0a645a42-fe48-o004-0001-cdhr00hi0049",
                "display": "Body Mass Index"
              }
            ]
          },
          {
            "code": {
              "coding": [
                {
                  "code": "418138009",
                  "system": "http://snomed.info/sct",
                  "display": "Patient condition finding"
                }
              ]
            },
            "title": "Patient Condition Finding",
            "entry": [
              {
                "reference": "Observation/0a645a42-fe48-o005-0001-cdhr00hi0049",
                "display": "Fontanelles, Sutures"
              },
              {
                "reference": "Observation/0a645a42-fe48-o006-0001-cdhr00hi0049",
                "display": "Eyes"
              },
              {
                "reference": "Observation/0a645a42-fe48-o007-0001-cdhr00hi0049",
                "display": "Eyes Monocularly Tested"
              },
              {
                "reference": "Observation/0a645a42-fe48-o010-0001-cdhr00hi0049",
                "display": "Hearing Check"
              },
              {
                "reference": "Observation/0a645a42-fe48-o013-0001-cdhr00hi0049",
                "display": "Ears"
              },
              {
                "reference": "Observation/0a645a42-fe48-o014-0001-cdhr00hi0049",
                "display": "Mouth & Palate"
              },
              {
                "reference": "Observation/0a645a42-fe48-o015-0001-cdhr00hi0049",
                "display": "Cardiovascular"
              },
              {
                "reference": "Observation/0a645a42-fe48-o016-0001-cdhr00hi0049",
                "display": "FemoralPulses"
              },
              {
                "reference": "Observation/0a645a42-fe48-o017-0001-cdhr00hi0049",
                "display": "Respiratory Rate"
              },
              {
                "reference": "Observation/0a645a42-fe48-o018-0001-cdhr00hi0049",
                "display": "Abdomen"
              },
              {
                "reference": "Observation/0a645a42-fe48-o019-0001-cdhr00hi0049",
                "display": "Umbilicus"
              },
              {
                "reference": "Observation/0a645a42-fe48-o020-0001-cdhr00hi0049",
                "display": "Anus"
              },
              {
                "reference": "Observation/0a645a42-fe48-o021-0001-cdhr00hi0049",
                "display": "Genitalia"
              },
              {
                "reference": "Observation/0a645a42-fe48-o022-0001-cdhr00hi0049",
                "display": "Testes fully descended"
              },
              {
                "reference": "Observation/0a645a42-fe48-o023-0001-cdhr00hi0049",
                "display": "Musculo-Skeletal"
              },
              {
                "reference": "Observation/0a645a42-fe48-o024-0001-cdhr00hi0049",
                "display": "Limbs"
              },
              {
                "reference": "Observation/0a645a42-fe48-o025-0001-cdhr00hi0049",
                "display": "Spine"
              },
              {
                "reference": "Observation/0a645a42-fe48-o026-0001-cdhr00hi0049",
                "display": "Hips"
              },
              {
                "reference": "Observation/0a645a42-fe48-o0027-0001-cdhr00hi0049",
                "display": "Gait"
              },
              {
                "reference": "Observation/0a645a42-fe48-o028-0001-cdhr00hi0049",
                "display": "Skin"
              },
              {
                "reference": "Observation/0a645a42-fe48-o029-0001-cdhr00hi0049",
                "display": "Reflexes"
              },
              {
                "reference": "Observation/0a645a42-fe48-o030-0001-cdhr00hi0049",
                "display": "Neurological"
              },
              {
                "reference": "Observation/0a645a42-fe48-o031-0001-cdhr00hi0049",
                "display": "Head Shape"
              },
              {
                "reference": "Observation/0a645a42-fe48-o032-0001-cdhr00hi0049",
                "display": "Deworming"
              },
              {
                "reference": "Observation/0a645a42-fe48-o033-0001-cdhr00hi0049",
                "display": "Iron Testing"
              },
              {
                "reference": "Observation/0a645a42-fe48-o036-0001-cdhr00hi0049",
                "display": "Oral Health"
              },
              {
                "reference": "Observation/0a645a42-fe48-o037-0001-cdhr00hi0049",
                "display": "Devolopement"
              }
            ]
          }
        ],
        "status": "final",
        "subject": {
          "reference": "Patient/a01bacd2-pt5c-11ea-b3de-0242ac130000",
          "display": "Baby of Lina Smith"
        },
        "encounter": {
          "reference": "Encounter/0a645a42-fe48-e001-0001-cdhr00hi0049",
          "display": "Downunder Hospital"
        },
        "date": "2020-07-10T16:13:03+10:00",
        "author": [
          {
            "reference": "Practitioner/p01bacd2-or5c-11ea-b3de-0242ac130002",
            "display": "Helen Mayo"
          }
        ],
        "attester": [
          {
            "mode": "professional",
            "party": {
              "reference": "Organization/o01bacd2-or5c-11ea-b3de-0242ac130002",
              "display": "Downunder Hospital"
            }
          }
        ],
        "custodian": {
          "reference": "Organization/o01bacd2-or5c-11ea-b3de-0242ac130002",
          "display": "Downunder Hospital"
        }
      }
    },
    {
      "fullUrl": "urn:uuid:a01bacd2-pt5c-11ea-b3de-0242ac130000",
      "resource": {
        "resourceType": "Patient",
        "id": "a01bacd2-pt5c-11ea-b3de-0242ac130000",
        "meta": {
          "profile": [
            "http://build.fhir.org/ig/hl7au/au-fhir-childhealth/StructureDefinition/ncdhc-patient-child"
          ]
        },
        "identifier": [
          {
            "type": {
              "coding": [
                {
                  "system": "http://terminology.hl7.org/CodeSystem/v2-0203",
                  "code": "NI",
                  "display": "National unique individual identifier"
                }
              ],
              "text": "IHI"
            },
            "system": "http://ns.electronichealth.net.au/id/hi/ihi/1.0",
            "value": "8003608833357361"
          },
          {
            "type": {
              "coding": [
                {
                  "system": "http://terminology.hl7.org/CodeSystem/v2-0203",
                  "code": "MR",
                  "display": "Medical record number"
                }
              ],
              "text": "Medical Record Number"
            },
            "system": "http://ns.electronichealth.net.au/id/hpio-scoped/medicalrecord/1.0/8003620000000000",
            "value": "02134000",
            "assigner": {
              "display": "Blacktown Hospital"
            }
          }
        ],
        "extension": [
          {
            "url": "http://hl7.org/fhir/StructureDefinition/patient-birthPlace",
            "valueAddress": {
              "text": "Blacktown Hostpital"
            }
          }
        ],
        "contact": [
          {
            "relationship": [
              {
                "coding": [
                  {
                    "code": "MTH",
                    "system": "http://terminology.hl7.org/CodeSystem/v3-RoleCode"
                  }
                ]
              }
            ],
            "name": {
              "given": [
                "Lina"
              ],
              "family": "Smith"
            }
          }
        ],
        "active": true,
        "name": [
          {
            "use": "temp",
            "given": [
              "Baby of Lina"
            ],
            "family": "Smith"
          }
        ],
        "gender": "male",
        "birthDate": "2020-08-01"
      }
    },
    {
      "fullUrl": "urn:uuid:0a645a42-fe48-e001-0001-cdhr00hi0049",
      "resource": {
        "resourceType": "Encounter",
        "id": "0a645a42-fe48-e001-0001-cdhr00hi0049",
        "meta": {
          "profile": [
            "http://build.fhir.org/ig/hl7au/au-fhir-childhealth/StructureDefinition/ncdhc-encounter-cdhr"
          ]
        },
        "status": "finished",
        "class": {
          "code": "AMB",
          "system": "http://terminology.hl7.org/CodeSystem/v3-ActCode",
          "display": "ambulatory"
        },
        "subject": {
          "reference": "Patient/a01bacd2-pt5c-11ea-b3de-0242ac130000",
          "display": "Baby of Lina Smith"
        },
        "period": {
          "start": "2020-07-10T16:13:03+10:00",
          "end": "2020-07-10T16:13:03+10:00"
        },
        "contained": [
          {
            "resourceType": "Location",
            "id": "0a645a42-fe48-l001-0001-cdhr00hi0049",
            "name": "Downunder Hospital"
          }
        ],
        "location": [
          {
            "location": {
              "reference": "#0a645a42-fe48-l001-0001-cdhr00hi0049",
              "display": "Downunder Hospital"
            },
            "status": "completed"
          }
        ]
      }
    },
    {
      "fullUrl": "urn:uuid:p01bacd2-or5c-11ea-b3de-0242ac130002",
      "resource": {
        "resourceType": "Practitioner",
        "id": "p01bacd2-or5c-11ea-b3de-0242ac130002",
        "meta": {
          "profile": [
            "http://build.fhir.org/ig/hl7au/au-fhir-childhealth/StructureDefinition/ncdhc-practitioner"
          ]
        },
        "identifier": [
          {
            "type": {
              "coding": [
                {
                  "system": "http://terminology.hl7.org/CodeSystem/v2-0203",
                  "code": "NPI",
                  "display": "National provider identifier"
                }
              ],
              "text": "HPI-I"
            },
            "system": "http://ns.electronichealth.net.au/id/hi/hpii/1.0",
            "value": "8003619900015717"
          }
        ],
        "active": true,
        "name": [
          {
            "given": [
              "Helen"
            ],
            "family": "Mayo"
          }
        ]
      }
    },
    {
      "fullUrl": "urn:uuid:o01bacd2-or5c-11ea-b3de-0242ac130002",
      "resource": {
        "resourceType": "Organization",
        "id": "o01bacd2-or5c-11ea-b3de-0242ac130002",
        "meta": {
          "profile": [
            "http://build.fhir.org/ig/hl7au/au-fhir-childhealth/StructureDefinition/ncdhc-organisation"
          ]
        },
        "identifier": [
          {
            "type": {
              "coding": [
                {
                  "system": "http://terminology.hl7.org.au/CodeSystem/v2-0203",
                  "code": "NOI",
                  "display": "National Organisation Identifier"
                }
              ],
              "text": "HPI-O"
            },
            "system": "http://ns.electronichealth.net.au/id/hi/hpio/1.0",
            "value": "8003621566684455"
          }
        ],
        "active": true,
        "name": "Downunder Hospital"
      }
    },
    {
      "fullUrl": "urn:uuid:0a645a42-fe48-o001-0001-cdhr00hi0049",
      "resource": {
        "resourceType": "Observation",
        "id": "0a645a42-fe48-o001-0001-cdhr00hi0049",
        "meta": {
          "profile": [
            "http://build.fhir.org/ig/hl7au/au-fhir-childhealth/StructureDefinition/ncdhc-observation-vitalsign-bodyweight"
          ]
        },
        "category": [
          {
            "coding": [
              {
                "system": "http://terminology.hl7.org/CodeSystem/observation-category",
                "code": "vital-signs"
              }
            ]
          }
        ],
        "code": {
          "coding": [
            {
              "system": "http://loinc.org",
              "code": "29463-7",
              "display": "Body weight"
            },
            {
              "system": "http://snomed.info/sct",
              "code": "27113001",
              "display": "Body weight"
            }
          ]
        },
        "valueQuantity": {
          "system": "http://unitsofmeasure.org",
          "code": "kg",
          "value": 2.5,
          "unit": "kg"
        },
        "status": "final",
        "subject": {
          "reference": "Patient/a01bacd2-pt5c-11ea-b3de-0242ac130000",
          "display": "Baby of Lina Smith"
        },
        "effectiveDateTime": "2020-07-10T16:13:03+10:00",
        "performer": [
          {
            "reference": "PractitionerRole/p01bacd2-pr5c-11ea-b3de-0242ac130003",
            "display": "Examiner"
          },
          {
            "reference": "Organization/o01bacd2-or5c-11ea-b3de-0242ac130002",
            "display": "Clinical Responsible Organisation"
          }
        ],
        "interpretation": [
          {
            "coding": [
              {
                "code": "17621005",
                "system": "http://snomed.info/sct",
                "display": "Normal"
              }
            ]
          }
        ]
      }
    },
    {
      "fullUrl": "urn:uuid:0a645a42-fe48-o002-0001-cdhr00hi0049",
      "resource": {
        "resourceType": "Observation",
        "id": "0a645a42-fe48-o002-0001-cdhr00hi0049",
        "meta": {
          "profile": [
            "http://build.fhir.org/ig/hl7au/au-fhir-childhealth/StructureDefinition/ncdhc-observation-vitalsign-bodyheight"
          ]
        },
        "category": [
          {
            "coding": [
              {
                "system": "http://terminology.hl7.org/CodeSystem/observation-category",
                "code": "vital-signs"
              }
            ]
          }
        ],
        "code": {
          "coding": [
            {
              "system": "http://loinc.org",
              "code": "8302-2",
              "display": "Body height"
            },
            {
              "system": "http://snomed.info/sct",
              "code": "50373000",
              "display": "Body height measure"
            }
          ]
        },
        "valueQuantity": {
          "system": "http://unitsofmeasure.org",
          "code": "cm",
          "value": 130.1,
          "unit": "cm"
        },
        "status": "final",
        "subject": {
          "reference": "Patient/a01bacd2-pt5c-11ea-b3de-0242ac130000",
          "display": "Baby of Lina Smith"
        },
        "effectiveDateTime": "2020-07-10T16:13:03+10:00",
        "performer": [
          {
            "reference": "PractitionerRole/p01bacd2-pr5c-11ea-b3de-0242ac130003",
            "display": "Examiner"
          },
          {
            "reference": "Organization/o01bacd2-or5c-11ea-b3de-0242ac130002",
            "display": "Clinical Responsible Organisation"
          }
        ],
        "interpretation": [
          {
            "coding": [
              {
                "code": "17621005",
                "system": "http://snomed.info/sct",
                "display": "Normal"
              }
            ]
          }
        ],
        "note": [
          {
            "text": "patient's height is normal"
          }
        ]
      }
    },
    {
      "fullUrl": "urn:uuid:0a645a42-fe48-o003-0001-cdhr00hi0049",
      "resource": {
        "resourceType": "Observation",
        "id": "0a645a42-fe48-o003-0001-cdhr00hi0049",
        "meta": {
          "profile": [
            "http://build.fhir.org/ig/hl7au/au-fhir-childhealth/StructureDefinition/ncdhc-observation-vitalsign-head-circumference"
          ]
        },
        "category": [
          {
            "coding": [
              {
                "system": "http://terminology.hl7.org/CodeSystem/observation-category",
                "code": "vital-signs"
              }
            ]
          }
        ],
        "code": {
          "coding": [
            {
              "system": "http://loinc.org",
              "code": "9843-4",
              "display": "Head Occipital-frontal circumference"
            },
            {
              "system": "http://snomed.info/sct",
              "code": "363812007",
              "display": "Head Circumference"
            }
          ]
        },
        "valueQuantity": {
          "system": "http://unitsofmeasure.org",
          "code": "cm",
          "value": 25,
          "unit": "cm"
        },
        "status": "final",
        "subject": {
          "reference": "Patient/a01bacd2-pt5c-11ea-b3de-0242ac130000",
          "display": "Baby of Lina Smith"
        },
        "effectiveDateTime": "2020-07-10T16:13:03+10:00",
        "performer": [
          {
            "reference": "PractitionerRole/p01bacd2-pr5c-11ea-b3de-0242ac130003",
            "display": "Examiner"
          },
          {
            "reference": "Organization/o01bacd2-or5c-11ea-b3de-0242ac130002",
            "display": "Clinical Responsible Organisation"
          }
        ],
        "interpretation": [
          {
            "coding": [
              {
                "code": "17621005",
                "system": "http://snomed.info/sct",
                "display": "Normal"
              }
            ]
          }
        ]
      }
    },
    {
      "fullUrl": "urn:uuid:0a645a42-fe48-o004-0001-cdhr00hi0049",
      "resource": {
        "resourceType": "Observation",
        "id": "0a645a42-fe48-o004-0001-cdhr00hi0049",
        "meta": {
          "profile": [
            "http://build.fhir.org/ig/hl7au/au-fhir-childhealth/StructureDefinition/ncdhc-observation-vitalsign-bmi"
          ]
        },
        "category": [
          {
            "coding": [
              {
                "system": "http://terminology.hl7.org/CodeSystem/observation-category",
                "code": "vital-signs"
              }
            ]
          }
        ],
        "code": {
          "coding": [
            {
              "system": "http://loinc.org",
              "code": "39156-5",
              "display": "Body mass index (BMI) [Ratio]"
            },
            {
              "system": "http://snomed.info/sct",
              "code": "60621009",
              "display": "Body mass index"
            }
          ]
        },
        "valueQuantity": {
          "system": "http://unitsofmeasure.org",
          "code": "kg/m2",
          "value": 3.1,
          "unit": "kg/m2"
        },
        "status": "final",
        "subject": {
          "reference": "Patient/a01bacd2-pt5c-11ea-b3de-0242ac130000",
          "display": "Baby of Lina Smith"
        },
        "effectiveDateTime": "2020-07-10T16:13:03+10:00",
        "performer": [
          {
            "reference": "PractitionerRole/p01bacd2-pr5c-11ea-b3de-0242ac130003",
            "display": "Examiner"
          },
          {
            "reference": "Organization/o01bacd2-or5c-11ea-b3de-0242ac130002",
            "display": "Clinical Responsible Organisation"
          }
        ],
        "interpretation": [
          {
            "coding": [
              {
                "code": "17621005",
                "system": "http://snomed.info/sct",
                "display": "Normal"
              }
            ]
          }
        ]
      }
    },
    {
      "fullUrl": "urn:uuid:0a645a42-fe48-o005-0001-cdhr00hi0049",
      "resource": {
        "resourceType": "Observation",
        "id": "0a645a42-fe48-o005-0001-cdhr00hi0049",
        "meta": {
          "profile": [
            "http://build.fhir.org/ig/hl7au/au-fhir-childhealth/StructureDefinition/ncdhc-observation-fontanelles-and-sutures-assessment"
          ]
        },
        "code": {
          "coding": [
            {
              "code": "7352004",
              "system": "http://snomed.info/sct",
              "display": "Fontanelle closure"
            }
          ]
        },
        "status": "final",
        "subject": {
          "reference": "Patient/a01bacd2-pt5c-11ea-b3de-0242ac130000",
          "display": "Baby of Lina Smith"
        },
        "effectiveDateTime": "2020-07-10T16:13:03+10:00",
        "interpretation": [
          {
            "coding": [
              {
                "code": "17621005",
                "system": "http://snomed.info/sct",
                "display": "Normal"
              }
            ]
          }
        ],
        "performer": [
          {
            "reference": "PractitionerRole/p01bacd2-pr5c-11ea-b3de-0242ac130003",
            "display": "Examiner"
          },
          {
            "reference": "Organization/o01bacd2-or5c-11ea-b3de-0242ac130002",
            "display": "Clinical Responsible Organisation"
          }
        ]
      }
    },
    {
      "fullUrl": "urn:uuid:0a645a42-fe48-o006-0001-cdhr00hi0049",
      "resource": {
        "resourceType": "Observation",
        "id": "0a645a42-fe48-o006-0001-cdhr00hi0049",
        "meta": {
          "profile": [
            "http://build.fhir.org/ig/hl7au/au-fhir-childhealth/StructureDefinition/ncdhc-observation-eyes-exam"
          ]
        },
        "code": {
          "coding": [
            {
              "code": "363926002",
              "system": "http://snomed.info/sct",
              "display": "Eye/vision observable"
            }
          ]
        },
        "component": [
          {
            "code": {
              "coding": [
                {
                  "code": "18944008",
                  "system": "http://snomed.info/sct",
                  "display": "Right eye structure"
                }
              ]
            },
            "interpretation": [
              {
                "coding": [
                  {
                    "code": "17621005",
                    "system": "http://snomed.info/sct",
                    "display": "Normal"
                  }
                ]
              }
            ]
          },
          {
            "code": {
              "coding": [
                {
                  "code": "8966001",
                  "system": "http://snomed.info/sct",
                  "display": "Left eye structure"
                }
              ]
            },
            "interpretation": [
              {
                "coding": [
                  {
                    "code": "17621005",
                    "system": "http://snomed.info/sct",
                    "display": "Normal"
                  }
                ]
              }
            ]
          }
        ],
        "status": "final",
        "subject": {
          "reference": "Patient/a01bacd2-pt5c-11ea-b3de-0242ac130000",
          "display": "Baby of Lina Smith"
        },
        "effectiveDateTime": "2020-07-10T16:13:03+10:00",
        "performer": [
          {
            "reference": "PractitionerRole/p01bacd2-pr5c-11ea-b3de-0242ac130003",
            "display": "Examiner"
          },
          {
            "reference": "Organization/o01bacd2-or5c-11ea-b3de-0242ac130002",
            "display": "Clinical Responsible Organisation"
          }
        ]
      }
    },
    {
      "fullUrl": "urn:uuid:0a645a42-fe48-o007-0001-cdhr00hi0049",
      "resource": {
        "resourceType": "Observation",
        "id": "0a645a42-fe48-o007-0001-cdhr00hi0049",
        "meta": {
          "profile": [
            "http://build.fhir.org/ig/hl7au/au-fhir-childhealth/StructureDefinition/ncdhc-observation-eyes-monocularly-tested"
          ]
        },
        "code": {
          "coding": [
            {
              "code": "363983007",
              "system": "http://snomed.info/sct",
              "display": " Visual Acuity"
            }
          ]
        },
        "status": "final",
        "subject": {
          "reference": "Patient/a01bacd2-pt5c-11ea-b3de-0242ac130000",
          "display": "Baby of Lina Smith"
        },
        "effectiveDateTime": "2020-07-10T16:13:03+10:00",
        "hasMember": [
          {
            "reference": "Observation/0a645a42-fe48-o008-0001-cdhr00hi0049",
            "display": "RightEye VisualAcuity Outcome"
          },
          {
            "reference": "Observation/0a645a42-fe48-o009-0001-cdhr00hi0049",
            "display": "leftEye VisualAcuity Outcome"
          }
        ],
        "performer": [
          {
            "reference": "PractitionerRole/p01bacd2-pr5c-11ea-b3de-0242ac130003",
            "display": "Examiner"
          },
          {
            "reference": "Organization/o01bacd2-or5c-11ea-b3de-0242ac130002",
            "display": "Clinical Responsible Organisation"
          }
        ]
      }
    },
    {
      "fullUrl": "urn:uuid:0a645a42-fe48-o008-0001-cdhr00hi0049",
      "resource": {
        "resourceType": "Observation",
        "id": "0a645a42-fe48-o008-0001-cdhr00hi0049",
        "meta": {
          "profile": [
            "http://build.fhir.org/ig/hl7au/au-fhir-childhealth/StructureDefinition/ncdhc-observation-right-eye-visual-acuity"
          ]
        },
        "code": {
          "coding": [
            {
              "code": "386709002",
              "system": "http://snomed.info/sct",
              "display": "Visual acuity - right eye"
            }
          ]
        },
        "component": [
          {
            "code": {
              "coding": [
                {
                  "code": "1368901000168106",
                  "system": "http://snomed.info/sct"
                }
              ]
            },
            "valueQuantity": {
              "value": 6
            }
          },
          {
            "code": {
              "coding": [
                {
                  "code": "1368911000168109",
                  "system": "http://snomed.info/sct"
                }
              ]
            },
            "valueQuantity": {
              "value": 12
            }
          }
        ],
        "status": "final",
        "subject": {
          "reference": "Patient/a01bacd2-pt5c-11ea-b3de-0242ac130000",
          "display": "Baby of Lina Smith"
        },
        "effectiveDateTime": "2020-07-10T16:13:03+10:00",
        "performer": [
          {
            "reference": "PractitionerRole/p01bacd2-pr5c-11ea-b3de-0242ac130003",
            "display": "Examiner"
          },
          {
            "reference": "Organization/o01bacd2-or5c-11ea-b3de-0242ac130002",
            "display": "Clinical Responsible Organisation"
          }
        ]
      }
    },
    {
      "fullUrl": "urn:uuid:0a645a42-fe48-o009-0001-cdhr00hi0049",
      "resource": {
        "resourceType": "Observation",
        "id": "0a645a42-fe48-o009-0001-cdhr00hi0049",
        "meta": {
          "profile": [
            "http://build.fhir.org/ig/hl7au/au-fhir-childhealth/StructureDefinition/ncdhc-observation-left-eye-visual-acuity"
          ]
        },
        "code": {
          "coding": [
            {
              "code": "386708005",
              "system": "http://snomed.info/sct",
              "display": "Visual acuity - left eye"
            }
          ]
        },
        "component": [
          {
            "code": {
              "coding": [
                {
                  "code": "1368911000168109",
                  "system": "http://snomed.info/sct"
                }
              ]
            },
            "valueQuantity": {
              "value": 6
            }
          },
          {
            "code": {
              "coding": [
                {
                  "code": "1368901000168106",
                  "system": "http://snomed.info/sct"
                }
              ]
            },
            "valueQuantity": {
              "value": 12
            }
          }
        ],
        "status": "final",
        "subject": {
          "reference": "Patient/a01bacd2-pt5c-11ea-b3de-0242ac130000",
          "display": "Baby of Lina Smith"
        },
        "effectiveDateTime": "2020-07-10T16:13:03+10:00",
        "performer": [
          {
            "reference": "PractitionerRole/p01bacd2-pr5c-11ea-b3de-0242ac130003",
            "display": "Examiner"
          },
          {
            "reference": "Organization/o01bacd2-or5c-11ea-b3de-0242ac130002",
            "display": "Clinical Responsible Organisation"
          }
        ]
      }
    },
    {
      "fullUrl": "urn:uuid:0a645a42-fe48-o010-0001-cdhr00hi0049",
      "resource": {
        "resourceType": "Observation",
        "id": "0a645a42-fe48-o010-0001-cdhr00hi0049",
        "meta": {
          "profile": [
            "http://build.fhir.org/ig/hl7au/au-fhir-childhealth/StructureDefinition/ncdhc-observation-hearing-check"
          ]
        },
        "code": {
          "coding": [
            {
              "code": "252957005",
              "system": "http://snomed.info/sct",
              "display": "Children's hearing test"
            }
          ]
        },
        "status": "final",
        "subject": {
          "reference": "Patient/a01bacd2-pt5c-11ea-b3de-0242ac130000",
          "display": "Baby of Lina Smith"
        },
        "effectiveDateTime": "2020-07-10T16:13:03+10:00",
        "hasMember": [
          {
            "reference": "Observation/0a645a42-fe48-o011-0001-cdhr00hi0049",
            "display": "Pure Tone Audiometry"
          },
          {
            "reference": "Observation/0a645a42-fe48-o012-0001-cdhr00hi0049",
            "display": "Tympanometry"
          }
        ],
        "performer": [
          {
            "reference": "PractitionerRole/p01bacd2-pr5c-11ea-b3de-0242ac130003",
            "display": "Examiner"
          },
          {
            "reference": "Organization/o01bacd2-or5c-11ea-b3de-0242ac130002",
            "display": "Clinical Responsible Organisation"
          }
        ]
      }
    },
    {
      "fullUrl": "urn:uuid:0a645a42-fe48-o011-0001-cdhr00hi0049",
      "resource": {
        "resourceType": "Observation",
        "id": "0a645a42-fe48-o011-0001-cdhr00hi0049",
        "meta": {
          "profile": [
            "http://build.fhir.org/ig/hl7au/au-fhir-childhealth/StructureDefinition/ncdhc-observation-pure-tone-audiometry"
          ]
        },
        "code": {
          "coding": [
            {
              "code": "250889006",
              "system": "http://snomed.info/sct",
              "display": "Hearing level"
            }
          ]
        },
        "status": "final",
        "subject": {
          "reference": "Patient/a01bacd2-pt5c-11ea-b3de-0242ac130000",
          "display": "Baby of Lina Smith"
        },
        "effectiveDateTime": "2020-07-10T16:13:03+10:00",
        "interpretation": [
          {
            "coding": [
              {
                "code": "17621005",
                "system": "http://snomed.info/sct",
                "display": "Normal"
              }
            ]
          }
        ],
        "performer": [
          {
            "reference": "PractitionerRole/p01bacd2-pr5c-11ea-b3de-0242ac130003",
            "display": "Examiner"
          },
          {
            "reference": "Organization/o01bacd2-or5c-11ea-b3de-0242ac130002",
            "display": "Clinical Responsible Organisation"
          }
        ]
      }
    },
    {
      "fullUrl": "urn:uuid:0a645a42-fe48-o012-0001-cdhr00hi0049",
      "resource": {
        "resourceType": "Observation",
        "id": "0a645a42-fe48-o012-0001-cdhr00hi0049",
        "meta": {
          "profile": [
            "http://build.fhir.org/ig/hl7au/au-fhir-childhealth/StructureDefinition/ncdhc-observation-tympanometry"
          ]
        },
        "code": {
          "coding": [
            {
              "code": "364004008",
              "system": "http://snomed.info/sct",
              "display": "Tympanic membrane observable"
            }
          ]
        },
        "status": "final",
        "subject": {
          "reference": "Patient/a01bacd2-pt5c-11ea-b3de-0242ac130000",
          "display": "Baby of Lina Smith"
        },
        "effectiveDateTime": "2020-07-10T16:13:03+10:00",
        "valueCodeableConcept": {
          "coding": [
            {
              "code": "300159009",
              "system": "http://snomed.info/sct",
              "display": "Tympanic membrane normal"
            }
          ]
        },
        "performer": [
          {
            "reference": "PractitionerRole/p01bacd2-pr5c-11ea-b3de-0242ac130003",
            "display": "Examiner"
          },
          {
            "reference": "Organization/o01bacd2-or5c-11ea-b3de-0242ac130002",
            "display": "Clinical Responsible Organisation"
          }
        ]
      }
    },
    {
      "fullUrl": "urn:uuid:0a645a42-fe48-o013-0001-cdhr00hi0049",
      "resource": {
        "resourceType": "Observation",
        "id": "0a645a42-fe48-o013-0001-cdhr00hi0049",
        "meta": {
          "profile": [
            "http://build.fhir.org/ig/hl7au/au-fhir-childhealth/StructureDefinition/ncdhc-observation-ears-exam"
          ]
        },
        "code": {
          "coding": [
            {
              "code": "363991003",
              "system": "http://snomed.info/sct",
              "display": "Ear observable"
            }
          ]
        },
        "component": [
          {
            "code": {
              "coding": [
                {
                  "code": "25577004",
                  "system": "http://snomed.info/sct",
                  "display": "Right ear structure"
                }
              ]
            },
            "interpretation": [
              {
                "coding": [
                  {
                    "code": "17621005",
                    "system": "http://snomed.info/sct",
                    "display": "Normal"
                  }
                ]
              }
            ]
          },
          {
            "code": {
              "coding": [
                {
                  "code": "89644007",
                  "system": "http://snomed.info/sct",
                  "display": "Left ear structure"
                }
              ]
            },
            "interpretation": [
              {
                "coding": [
                  {
                    "code": "17621005",
                    "system": "http://snomed.info/sct",
                    "display": "Normal"
                  }
                ]
              }
            ]
          }
        ],
        "status": "final",
        "subject": {
          "reference": "Patient/a01bacd2-pt5c-11ea-b3de-0242ac130000",
          "display": "Baby of Lina Smith"
        },
        "effectiveDateTime": "2020-07-10T16:13:03+10:00",
        "performer": [
          {
            "reference": "PractitionerRole/p01bacd2-pr5c-11ea-b3de-0242ac130003",
            "display": "Examiner"
          },
          {
            "reference": "Organization/o01bacd2-or5c-11ea-b3de-0242ac130002",
            "display": "Clinical Responsible Organisation"
          }
        ]
      }
    },
    {
      "fullUrl": "urn:uuid:0a645a42-fe48-o014-0001-cdhr00hi0049",
      "resource": {
        "resourceType": "Observation",
        "id": "0a645a42-fe48-o014-0001-cdhr00hi0049",
        "meta": {
          "profile": [
            "http://build.fhir.org/ig/hl7au/au-fhir-childhealth/StructureDefinition/ncdhc-observation-mouth-palate-exam"
          ]
        },
        "code": {
          "coding": [
            {
              "code": "249390006",
              "system": "http://snomed.info/sct",
              "display": "Palate finding"
            }
          ]
        },
        "status": "final",
        "subject": {
          "reference": "Patient/a01bacd2-pt5c-11ea-b3de-0242ac130000",
          "display": "Baby of Lina Smith"
        },
        "effectiveDateTime": "2020-07-10T16:13:03+10:00",
        "interpretation": [
          {
            "coding": [
              {
                "code": "17621005",
                "system": "http://snomed.info/sct",
                "display": "Normal"
              }
            ]
          }
        ],
        "performer": [
          {
            "reference": "PractitionerRole/p01bacd2-pr5c-11ea-b3de-0242ac130003",
            "display": "Examiner"
          },
          {
            "reference": "Organization/o01bacd2-or5c-11ea-b3de-0242ac130002",
            "display": "Clinical Responsible Organisation"
          }
        ]
      }
    },
    {
      "fullUrl": "urn:uuid:0a645a42-fe48-o015-0001-cdhr00hi0049",
      "resource": {
        "resourceType": "Observation",
        "id": "0a645a42-fe48-o015-0001-cdhr00hi0049",
        "meta": {
          "profile": [
            "http://build.fhir.org/ig/hl7au/au-fhir-childhealth/StructureDefinition/ncdhc-observation-cardiovascular-heart-exam"
          ]
        },
        "code": {
          "coding": [
            {
              "code": "70337006",
              "system": "http://snomed.info/sct",
              "display": "Cardiovascular function"
            }
          ]
        },
        "status": "final",
        "subject": {
          "reference": "Patient/a01bacd2-pt5c-11ea-b3de-0242ac130000",
          "display": "Baby of Lina Smith"
        },
        "effectiveDateTime": "2020-07-10T16:13:03+10:00",
        "interpretation": [
          {
            "coding": [
              {
                "code": "17621005",
                "system": "http://snomed.info/sct",
                "display": "Normal"
              }
            ]
          }
        ],
        "performer": [
          {
            "reference": "PractitionerRole/p01bacd2-pr5c-11ea-b3de-0242ac130003",
            "display": "Examiner"
          },
          {
            "reference": "Organization/o01bacd2-or5c-11ea-b3de-0242ac130002",
            "display": "Clinical Responsible Organisation"
          }
        ]
      }
    },
    {
      "fullUrl": "urn:uuid:0a645a42-fe48-o016-0001-cdhr00hi0049",
      "resource": {
        "resourceType": "Observation",
        "id": "0a645a42-fe48-o016-0001-cdhr00hi0049",
        "meta": {
          "profile": [
            "http://build.fhir.org/ig/hl7au/au-fhir-childhealth/StructureDefinition/ncdhc-observation-femoral-pulses-exam"
          ]
        },
        "code": {
          "coding": [
            {
              "code": "67316000",
              "system": "http://snomed.info/sct",
              "display": "Femoral pulse"
            }
          ]
        },
        "component": [
          {
            "code": {
              "coding": [
                {
                  "code": "69833005",
                  "system": "http://snomed.info/sct",
                  "display": "Structure of right femoral artery"
                }
              ]
            },
            "interpretation": [
              {
                "coding": [
                  {
                    "code": "17621005",
                    "system": "http://snomed.info/sct",
                    "display": "Normal"
                  }
                ]
              }
            ]
          },
          {
            "code": {
              "coding": [
                {
                  "code": "113270003",
                  "system": "http://snomed.info/sct",
                  "display": "Structure of left femoral artery"
                }
              ]
            },
            "interpretation": [
              {
                "coding": [
                  {
                    "code": "17621005",
                    "system": "http://snomed.info/sct",
                    "display": "Normal"
                  }
                ]
              }
            ]
          }
        ],
        "status": "final",
        "subject": {
          "reference": "Patient/a01bacd2-pt5c-11ea-b3de-0242ac130000",
          "display": "Baby of Lina Smith"
        },
        "effectiveDateTime": "2020-07-10T16:13:03+10:00",
        "performer": [
          {
            "reference": "PractitionerRole/p01bacd2-pr5c-11ea-b3de-0242ac130003",
            "display": "Examiner"
          },
          {
            "reference": "Organization/o01bacd2-or5c-11ea-b3de-0242ac130002",
            "display": "Clinical Responsible Organisation"
          }
        ]
      }
    },
    {
      "fullUrl": "urn:uuid:0a645a42-fe48-o017-0001-cdhr00hi0049",
      "resource": {
        "resourceType": "Observation",
        "id": "0a645a42-fe48-o017-0001-cdhr00hi0049",
        "meta": {
          "profile": [
            "http://build.fhir.org/ig/hl7au/au-fhir-childhealth/StructureDefinition/ncdhc-observation-respiratory-rate-exam"
          ]
        },
        "code": {
          "coding": [
            {
              "code": "86290005",
              "system": "http://snomed.info/sct",
              "display": "Respiratory rate"
            }
          ]
        },
        "status": "final",
        "subject": {
          "reference": "Patient/a01bacd2-pt5c-11ea-b3de-0242ac130000",
          "display": "Baby of Lina Smith"
        },
        "effectiveDateTime": "2020-07-10T16:13:03+10:00",
        "interpretation": [
          {
            "coding": [
              {
                "code": "17621005",
                "system": "http://snomed.info/sct",
                "display": "Normal"
              }
            ]
          }
        ],
        "performer": [
          {
            "reference": "PractitionerRole/p01bacd2-pr5c-11ea-b3de-0242ac130003",
            "display": "Examiner"
          },
          {
            "reference": "Organization/o01bacd2-or5c-11ea-b3de-0242ac130002",
            "display": "Clinical Responsible Organisation"
          }
        ]
      }
    },
    {
      "fullUrl": "urn:uuid:0a645a42-fe48-o018-0001-cdhr00hi0049",
      "resource": {
        "resourceType": "Observation",
        "id": "0a645a42-fe48-o018-0001-cdhr00hi0049",
        "meta": {
          "profile": [
            "http://build.fhir.org/ig/hl7au/au-fhir-childhealth/StructureDefinition/ncdhc-observation-abdomen-exam"
          ]
        },
        "code": {
          "coding": [
            {
              "code": "271911005",
              "system": "http://snomed.info/sct",
              "display": "Abdominal examination finding"
            }
          ]
        },
        "status": "final",
        "subject": {
          "reference": "Patient/a01bacd2-pt5c-11ea-b3de-0242ac130000",
          "display": "Baby of Lina Smith"
        },
        "effectiveDateTime": "2020-07-10T16:13:03+10:00",
        "interpretation": [
          {
            "coding": [
              {
                "code": "17621005",
                "system": "http://snomed.info/sct",
                "display": "Normal"
              }
            ]
          }
        ],
        "performer": [
          {
            "reference": "PractitionerRole/p01bacd2-pr5c-11ea-b3de-0242ac130003",
            "display": "Examiner"
          },
          {
            "reference": "Organization/o01bacd2-or5c-11ea-b3de-0242ac130002",
            "display": "Clinical Responsible Organisation"
          }
        ]
      }
    },
    {
      "fullUrl": "urn:uuid:0a645a42-fe48-o019-0001-cdhr00hi0049",
      "resource": {
        "resourceType": "Observation",
        "id": "0a645a42-fe48-o019-0001-cdhr00hi0049",
        "meta": {
          "profile": [
            "http://build.fhir.org/ig/hl7au/au-fhir-childhealth/StructureDefinition/ncdhc-observation-umbilicus-exam"
          ]
        },
        "code": {
          "coding": [
            {
              "code": "364594006",
              "system": "http://snomed.info/sct",
              "display": "Umbilical stump observable"
            }
          ]
        },
        "status": "final",
        "subject": {
          "reference": "Patient/a01bacd2-pt5c-11ea-b3de-0242ac130000",
          "display": "Baby of Lina Smith"
        },
        "effectiveDateTime": "2020-07-10T16:13:03+10:00",
        "interpretation": [
          {
            "coding": [
              {
                "code": "17621005",
                "system": "http://snomed.info/sct",
                "display": "Normal"
              }
            ]
          }
        ],
        "performer": [
          {
            "reference": "PractitionerRole/p01bacd2-pr5c-11ea-b3de-0242ac130003",
            "display": "Examiner"
          },
          {
            "reference": "Organization/o01bacd2-or5c-11ea-b3de-0242ac130002",
            "display": "Clinical Responsible Organisation"
          }
        ]
      }
    },
    {
      "fullUrl": "urn:uuid:0a645a42-fe48-o020-0001-cdhr00hi0049",
      "resource": {
        "resourceType": "Observation",
        "id": "0a645a42-fe48-o020-0001-cdhr00hi0049",
        "meta": {
          "profile": [
            "http://build.fhir.org/ig/hl7au/au-fhir-childhealth/StructureDefinition/ncdhc-observation-anus-exam"
          ]
        },
        "code": {
          "coding": [
            {
              "code": "364154000",
              "system": "http://snomed.info/sct",
              "display": "Appearance of anus"
            }
          ]
        },
        "status": "final",
        "subject": {
          "reference": "Patient/a01bacd2-pt5c-11ea-b3de-0242ac130000",
          "display": "Baby of Lina Smith"
        },
        "effectiveDateTime": "2020-07-10T16:13:03+10:00",
        "interpretation": [
          {
            "coding": [
              {
                "code": "17621005",
                "system": "http://snomed.info/sct",
                "display": "Normal"
              }
            ]
          }
        ],
        "performer": [
          {
            "reference": "PractitionerRole/p01bacd2-pr5c-11ea-b3de-0242ac130003",
            "display": "Examiner"
          },
          {
            "reference": "Organization/o01bacd2-or5c-11ea-b3de-0242ac130002",
            "display": "Clinical Responsible Organisation"
          }
        ]
      }
    },
    {
      "fullUrl": "urn:uuid:0a645a42-fe48-o021-0001-cdhr00hi0049",
      "resource": {
        "resourceType": "Observation",
        "id": "0a645a42-fe48-o021-0001-cdhr00hi0049",
        "meta": {
          "profile": [
            "http://build.fhir.org/ig/hl7au/au-fhir-childhealth/StructureDefinition/ncdhc-observation-genitalia-exam"
          ]
        },
        "code": {
          "coding": [
            {
              "code": "364204002",
              "system": "http://snomed.info/sct",
              "display": "Genital observable"
            }
          ]
        },
        "status": "final",
        "subject": {
          "reference": "Patient/a01bacd2-pt5c-11ea-b3de-0242ac130000",
          "display": "Baby of Lina Smith"
        },
        "effectiveDateTime": "2020-07-10T16:13:03+10:00",
        "interpretation": [
          {
            "coding": [
              {
                "code": "17621005",
                "system": "http://snomed.info/sct",
                "display": "Normal"
              }
            ]
          }
        ],
        "performer": [
          {
            "reference": "PractitionerRole/p01bacd2-pr5c-11ea-b3de-0242ac130003",
            "display": "Examiner"
          },
          {
            "reference": "Organization/o01bacd2-or5c-11ea-b3de-0242ac130002",
            "display": "Clinical Responsible Organisation"
          }
        ]
      }
    },
    {
      "fullUrl": "urn:uuid:0a645a42-fe48-o022-0001-cdhr00hi0049",
      "resource": {
        "resourceType": "Observation",
        "id": "0a645a42-fe48-o022-0001-cdhr00hi0049",
        "meta": {
          "profile": [
            "http://build.fhir.org/ig/hl7au/au-fhir-childhealth/StructureDefinition/ncdhc-observation-testes-exam"
          ]
        },
        "code": {
          "coding": [
            {
              "code": "249237009",
              "system": "http://snomed.info/sct",
              "display": "Position of testicle"
            }
          ]
        },
        "component": [
          {
            "code": {
              "coding": [
                {
                  "code": "15598003",
                  "system": "http://snomed.info/sct",
                  "display": "Structure of right testis"
                }
              ]
            },
            "interpretation": [
              {
                "coding": [
                  {
                    "code": "17621005",
                    "system": "http://snomed.info/sct",
                    "display": "Normal"
                  }
                ]
              }
            ]
          },
          {
            "code": {
              "coding": [
                {
                  "code": "63239009",
                  "system": "http://snomed.info/sct",
                  "display": "Structure of left testis"
                }
              ]
            },
            "interpretation": [
              {
                "coding": [
                  {
                    "code": "17621005",
                    "system": "http://snomed.info/sct",
                    "display": "Normal"
                  }
                ]
              }
            ]
          }
        ],
        "status": "final",
        "subject": {
          "reference": "Patient/a01bacd2-pt5c-11ea-b3de-0242ac130000",
          "display": "Baby of Lina Smith"
        },
        "effectiveDateTime": "2020-07-10T16:13:03+10:00",
        "performer": [
          {
            "reference": "PractitionerRole/p01bacd2-pr5c-11ea-b3de-0242ac130003",
            "display": "Examiner"
          },
          {
            "reference": "Organization/o01bacd2-or5c-11ea-b3de-0242ac130002",
            "display": "Clinical Responsible Organisation"
          }
        ]
      }
    },
    {
      "fullUrl": "urn:uuid:0a645a42-fe48-o023-0001-cdhr00hi0049",
      "resource": {
        "resourceType": "Observation",
        "id": "0a645a42-fe48-o023-0001-cdhr00hi0049",
        "meta": {
          "profile": [
            "http://build.fhir.org/ig/hl7au/au-fhir-childhealth/StructureDefinition/ncdhc-observation-musculo-skeletal-exam"
          ]
        },
        "code": {
          "coding": [
            {
              "code": "364561008",
              "system": "http://snomed.info/sct",
              "display": "Musculoskeletal observable"
            }
          ]
        },
        "status": "final",
        "subject": {
          "reference": "Patient/a01bacd2-pt5c-11ea-b3de-0242ac130000",
          "display": "Baby of Lina Smith"
        },
        "effectiveDateTime": "2020-07-10T16:13:03+10:00",
        "interpretation": [
          {
            "coding": [
              {
                "code": "17621005",
                "system": "http://snomed.info/sct",
                "display": "Normal"
              }
            ]
          }
        ],
        "performer": [
          {
            "reference": "PractitionerRole/p01bacd2-pr5c-11ea-b3de-0242ac130003",
            "display": "Examiner"
          },
          {
            "reference": "Organization/o01bacd2-or5c-11ea-b3de-0242ac130002",
            "display": "Clinical Responsible Organisation"
          }
        ]
      }
    },
    {
      "fullUrl": "urn:uuid:0a645a42-fe48-o024-0001-cdhr00hi0049",
      "resource": {
        "resourceType": "Observation",
        "id": "0a645a42-fe48-o024-0001-cdhr00hi0049",
        "meta": {
          "profile": [
            "http://build.fhir.org/ig/hl7au/au-fhir-childhealth/StructureDefinition/ncdhc-observation-limbs-exam"
          ]
        },
        "code": {
          "coding": [
            {
              "code": "364463008",
              "system": "http://snomed.info/sct",
              "display": "Limb structure observable"
            }
          ]
        },
        "status": "final",
        "subject": {
          "reference": "Patient/a01bacd2-pt5c-11ea-b3de-0242ac130000",
          "display": "Baby of Lina Smith"
        },
        "effectiveDateTime": "2020-07-10T16:13:03+10:00",
        "interpretation": [
          {
            "coding": [
              {
                "code": "17621005",
                "system": "http://snomed.info/sct",
                "display": "Normal"
              }
            ]
          }
        ],
        "performer": [
          {
            "reference": "PractitionerRole/p01bacd2-pr5c-11ea-b3de-0242ac130003",
            "display": "Examiner"
          },
          {
            "reference": "Organization/o01bacd2-or5c-11ea-b3de-0242ac130002",
            "display": "Clinical Responsible Organisation"
          }
        ]
      }
    },
    {
      "fullUrl": "urn:uuid:0a645a42-fe48-o025-0001-cdhr00hi0049",
      "resource": {
        "resourceType": "Observation",
        "id": "0a645a42-fe48-o025-0001-cdhr00hi0049",
        "meta": {
          "profile": [
            "http://build.fhir.org/ig/hl7au/au-fhir-childhealth/StructureDefinition/ncdhc-observation-spine-exam"
          ]
        },
        "code": {
          "coding": [
            {
              "code": "364415005",
              "system": "http://snomed.info/sct",
              "display": "Spinal region observable"
            }
          ]
        },
        "status": "final",
        "subject": {
          "reference": "Patient/a01bacd2-pt5c-11ea-b3de-0242ac130000",
          "display": "Baby of Lina Smith"
        },
        "effectiveDateTime": "2020-07-10T16:13:03+10:00",
        "interpretation": [
          {
            "coding": [
              {
                "code": "17621005",
                "system": "http://snomed.info/sct",
                "display": "Normal"
              }
            ]
          }
        ],
        "performer": [
          {
            "reference": "PractitionerRole/p01bacd2-pr5c-11ea-b3de-0242ac130003",
            "display": "Examiner"
          },
          {
            "reference": "Organization/o01bacd2-or5c-11ea-b3de-0242ac130002",
            "display": "Clinical Responsible Organisation"
          }
        ]
      }
    },
    {
      "fullUrl": "urn:uuid:0a645a42-fe48-o026-0001-cdhr00hi0049",
      "resource": {
        "resourceType": "Observation",
        "id": "0a645a42-fe48-o026-0001-cdhr00hi0049",
        "meta": {
          "profile": [
            "http://build.fhir.org/ig/hl7au/au-fhir-childhealth/StructureDefinition/ncdhc-observation-hips-exam"
          ]
        },
        "code": {
          "coding": [
            {
              "code": "250100005",
              "system": "http://snomed.info/sct",
              "display": "Hip joint stability"
            }
          ]
        },
        "status": "final",
        "subject": {
          "reference": "Patient/a01bacd2-pt5c-11ea-b3de-0242ac130000",
          "display": "Baby of Lina Smith"
        },
        "effectiveDateTime": "2020-07-10T16:13:03+10:00",
        "interpretation": [
          {
            "coding": [
              {
                "code": "17621005",
                "system": "http://snomed.info/sct",
                "display": "Normal"
              }
            ]
          }
        ],
        "performer": [
          {
            "reference": "PractitionerRole/p01bacd2-pr5c-11ea-b3de-0242ac130003",
            "display": "Examiner"
          },
          {
            "reference": "Organization/o01bacd2-or5c-11ea-b3de-0242ac130002",
            "display": "Clinical Responsible Organisation"
          }
        ]
      }
    },
    {
      "fullUrl": "urn:uuid:0a645a42-fe48-o0027-0001-cdhr00hi0049",
      "resource": {
        "resourceType": "Observation",
        "id": "0a645a42-fe48-o0027-0001-cdhr00hi0049",
        "meta": {
          "profile": [
            "http://build.fhir.org/ig/hl7au/au-fhir-childhealth/StructureDefinition/ncdhc-observation-gait-assessment"
          ]
        },
        "code": {
          "coding": [
            {
              "code": "363836006",
              "system": "http://snomed.info/sct",
              "display": "Gait observable"
            }
          ]
        },
        "status": "final",
        "subject": {
          "reference": "Patient/a01bacd2-pt5c-11ea-b3de-0242ac130000",
          "display": "Baby of Lina Smith"
        },
        "effectiveDateTime": "2020-07-10T16:13:03+10:00",
        "interpretation": [
          {
            "coding": [
              {
                "code": "17621005",
                "system": "http://snomed.info/sct",
                "display": "Normal"
              }
            ]
          }
        ],
        "performer": [
          {
            "reference": "PractitionerRole/p01bacd2-pr5c-11ea-b3de-0242ac130003",
            "display": "Examiner"
          },
          {
            "reference": "Organization/o01bacd2-or5c-11ea-b3de-0242ac130002",
            "display": "Clinical Responsible Organisation"
          }
        ]
      }
    },
    {
      "fullUrl": "urn:uuid:0a645a42-fe48-o028-0001-cdhr00hi0049",
      "resource": {
        "resourceType": "Observation",
        "id": "0a645a42-fe48-o028-0001-cdhr00hi0049",
        "meta": {
          "profile": [
            "http://build.fhir.org/ig/hl7au/au-fhir-childhealth/StructureDefinition/ncdhc-observation-skin-exam"
          ]
        },
        "code": {
          "coding": [
            {
              "code": "364528001",
              "system": "http://snomed.info/sct",
              "display": "Skin observable"
            }
          ]
        },
        "status": "final",
        "subject": {
          "reference": "Patient/a01bacd2-pt5c-11ea-b3de-0242ac130000",
          "display": "Baby of Lina Smith"
        },
        "effectiveDateTime": "2020-07-10T16:13:03+10:00",
        "interpretation": [
          {
            "coding": [
              {
                "code": "17621005",
                "system": "http://snomed.info/sct",
                "display": "Normal"
              }
            ]
          }
        ],
        "performer": [
          {
            "reference": "PractitionerRole/p01bacd2-pr5c-11ea-b3de-0242ac130003",
            "display": "Examiner"
          },
          {
            "reference": "Organization/o01bacd2-or5c-11ea-b3de-0242ac130002",
            "display": "Clinical Responsible Organisation"
          }
        ]
      }
    },
    {
      "fullUrl": "urn:uuid:0a645a42-fe48-o029-0001-cdhr00hi0049",
      "resource": {
        "resourceType": "Observation",
        "id": "0a645a42-fe48-o029-0001-cdhr00hi0049",
        "meta": {
          "profile": [
            "http://build.fhir.org/ig/hl7au/au-fhir-childhealth/StructureDefinition/ncdhc-observation-reflexes-exam"
          ]
        },
        "code": {
          "coding": [
            {
              "code": "87572000",
              "system": "http://snomed.info/sct",
              "display": "Reflex"
            }
          ]
        },
        "status": "final",
        "subject": {
          "reference": "Patient/a01bacd2-pt5c-11ea-b3de-0242ac130000",
          "display": "Baby of Lina Smith"
        },
        "effectiveDateTime": "2020-07-10T16:13:03+10:00",
        "interpretation": [
          {
            "coding": [
              {
                "code": "17621005",
                "system": "http://snomed.info/sct",
                "display": "Normal"
              }
            ]
          }
        ],
        "performer": [
          {
            "reference": "PractitionerRole/p01bacd2-pr5c-11ea-b3de-0242ac130003",
            "display": "Examiner"
          },
          {
            "reference": "Organization/o01bacd2-or5c-11ea-b3de-0242ac130002",
            "display": "Clinical Responsible Organisation"
          }
        ]
      }
    },
    {
      "fullUrl": "urn:uuid:0a645a42-fe48-o030-0001-cdhr00hi0049",
      "resource": {
        "resourceType": "Observation",
        "id": "0a645a42-fe48-o030-0001-cdhr00hi0049",
        "meta": {
          "profile": [
            "http://build.fhir.org/ig/hl7au/au-fhir-childhealth/StructureDefinition/ncdhc-observation-neurological-exam"
          ]
        },
        "code": {
          "coding": [
            {
              "code": "363820009",
              "system": "http://snomed.info/sct",
              "display": "Neurological observable"
            }
          ]
        },
        "status": "final",
        "subject": {
          "reference": "Patient/a01bacd2-pt5c-11ea-b3de-0242ac130000",
          "display": "Baby of Lina Smith"
        },
        "effectiveDateTime": "2020-07-10T16:13:03+10:00",
        "interpretation": [
          {
            "coding": [
              {
                "code": "17621005",
                "system": "http://snomed.info/sct",
                "display": "Normal"
              }
            ]
          }
        ],
        "performer": [
          {
            "reference": "PractitionerRole/p01bacd2-pr5c-11ea-b3de-0242ac130003",
            "display": "Examiner"
          },
          {
            "reference": "Organization/o01bacd2-or5c-11ea-b3de-0242ac130002",
            "display": "Clinical Responsible Organisation"
          }
        ]
      }
    },
    {
      "fullUrl": "urn:uuid:0a645a42-fe48-o031-0001-cdhr00hi0049",
      "resource": {
        "resourceType": "Observation",
        "id": "0a645a42-fe48-o031-0001-cdhr00hi0049",
        "meta": {
          "profile": [
            "http://build.fhir.org/ig/hl7au/au-fhir-childhealth/StructureDefinition/ncdhc-observation-head-shape-assesment"
          ]
        },
        "code": {
          "coding": [
            {
              "code": "364407007",
              "system": "http://snomed.info/sct",
              "display": "Appearance of head"
            }
          ]
        },
        "status": "final",
        "subject": {
          "reference": "Patient/a01bacd2-pt5c-11ea-b3de-0242ac130000",
          "display": "Baby of Lina Smith"
        },
        "effectiveDateTime": "2020-07-10T16:13:03+10:00",
        "interpretation": [
          {
            "coding": [
              {
                "code": "17621005",
                "system": "http://snomed.info/sct",
                "display": "Normal"
              }
            ]
          }
        ],
        "performer": [
          {
            "reference": "PractitionerRole/p01bacd2-pr5c-11ea-b3de-0242ac130003",
            "display": "Examiner"
          },
          {
            "reference": "Organization/o01bacd2-or5c-11ea-b3de-0242ac130002",
            "display": "Clinical Responsible Organisation"
          }
        ]
      }
    },
    {
      "fullUrl": "urn:uuid:0a645a42-fe48-o032-0001-cdhr00hi0049",
      "resource": {
        "resourceType": "Observation",
        "id": "0a645a42-fe48-o032-0001-cdhr00hi0049",
        "meta": {
          "profile": [
            "http://build.fhir.org/ig/hl7au/au-fhir-childhealth/StructureDefinition/ncdhc-observation-deworming-assesment"
          ]
        },
        "code": {
          "coding": [
            {
              "code": "14369007",
              "system": "http://snomed.info/sct",
              "display": "Deworming"
            }
          ]
        },
        "status": "final",
        "subject": {
          "reference": "Patient/a01bacd2-pt5c-11ea-b3de-0242ac130000",
          "display": "Baby of Lina Smith"
        },
        "effectiveDateTime": "2020-07-10T16:13:03+10:00",
        "valueCodeableConcept": {
          "coding": [
            {
              "code": "443938003",
              "system": "http://snomed.info/sct",
              "display": "Procedure carried out on subject"
            }
          ]
        },
        "performer": [
          {
            "reference": "PractitionerRole/p01bacd2-pr5c-11ea-b3de-0242ac130003",
            "display": "Examiner"
          },
          {
            "reference": "Organization/o01bacd2-or5c-11ea-b3de-0242ac130002",
            "display": "Clinical Responsible Organisation"
          }
        ],
        "note": [
          {
            "text": "Medication has been administered"
          }
        ]
      }
    },
    {
      "fullUrl": "urn:uuid:0a645a42-fe48-o033-0001-cdhr00hi0049",
      "resource": {
        "resourceType": "Observation",
        "id": "0a645a42-fe48-o033-0001-cdhr00hi0049",
        "meta": {
          "profile": [
            "http://build.fhir.org/ig/hl7au/au-fhir-childhealth/StructureDefinition/ncdhc-observation-iron-testing-assesment"
          ]
        },
        "code": {
          "coding": [
            {
              "code": "42950004",
              "system": "http://snomed.info/sct",
              "display": "Iron measurement"
            }
          ]
        },
        "status": "final",
        "subject": {
          "reference": "Patient/a01bacd2-pt5c-11ea-b3de-0242ac130000",
          "display": "Baby of Lina Smith"
        },
        "effectiveDateTime": "2020-07-10T16:13:03+10:00",
        "valueCodeableConcept": {
          "coding": [
            {
              "code": "443938003",
              "system": "http://snomed.info/sct",
              "display": "Procedure carried out on subject"
            }
          ]
        },
        "hasMember": [
          {
            "reference": "Observation/0a645a42-fe48-o034-0001-cdhr00hi0049"
          },
          {
            "reference": "Observation/0a645a42-fe48-o035-0001-cdhr00hi0049"
          }
        ],
        "performer": [
          {
            "reference": "PractitionerRole/p01bacd2-pr5c-11ea-b3de-0242ac130003",
            "display": "Examiner"
          },
          {
            "reference": "Organization/o01bacd2-or5c-11ea-b3de-0242ac130002",
            "display": "Clinical Responsible Organisation"
          }
        ]
      }
    },
    {
      "fullUrl": "urn:uuid:0a645a42-fe48-o034-0001-cdhr00hi0049",
      "resource": {
        "resourceType": "Observation",
        "id": "0a645a42-fe48-o034-0001-cdhr00hi0049",
        "meta": {
          "profile": [
            "http://build.fhir.org/ig/hl7au/au-fhir-childhealth/StructureDefinition/ncdhc-observation-serum-ferritin-measurement"
          ]
        },
        "code": {
          "coding": [
            {
              "code": "269821003",
              "system": "http://snomed.info/sct",
              "display": "Serum ferritin measurement"
            }
          ]
        },
        "valueQuantity": {
          "code": "ug/L",
          "system": "http://unitsofmeasure.org",
          "value": 4,
          "unit": "ug/L"
        },
        "status": "final",
        "subject": {
          "reference": "Patient/a01bacd2-pt5c-11ea-b3de-0242ac130000",
          "display": "Baby of Lina Smith"
        },
        "effectiveDateTime": "2020-07-10T16:13:03+10:00",
        "performer": [
          {
            "reference": "PractitionerRole/p01bacd2-pr5c-11ea-b3de-0242ac130003",
            "display": "Examiner"
          },
          {
            "reference": "Organization/o01bacd2-or5c-11ea-b3de-0242ac130002",
            "display": "Clinical Responsible Organisation"
          }
        ]
      }
    },
    {
      "fullUrl": "urn:uuid:0a645a42-fe48-o035-0001-cdhr00hi0049",
      "resource": {
        "resourceType": "Observation",
        "id": "0a645a42-fe48-o035-0001-cdhr00hi0049",
        "meta": {
          "profile": [
            "http://build.fhir.org/ig/hl7au/au-fhir-childhealth/StructureDefinition/ncdhc-observation-haemoglobin-level-estimation"
          ]
        },
        "code": {
          "coding": [
            {
              "code": "271026005",
              "system": "http://snomed.info/sct",
              "display": "Haemoglobin level estimation"
            }
          ]
        },
        "valueQuantity": {
          "code": "ug/L",
          "system": "http://unitsofmeasure.org",
          "value": 6,
          "unit": "ug/L"
        },
        "status": "final",
        "subject": {
          "reference": "Patient/a01bacd2-pt5c-11ea-b3de-0242ac130000",
          "display": "Baby of Lina Smith"
        },
        "effectiveDateTime": "2020-07-10T16:13:03+10:00",
        "performer": [
          {
            "reference": "PractitionerRole/p01bacd2-pr5c-11ea-b3de-0242ac130003",
            "display": "Examiner"
          },
          {
            "reference": "Organization/o01bacd2-or5c-11ea-b3de-0242ac130002",
            "display": "Clinical Responsible Organisation"
          }
        ]
      }
    },
    {
      "fullUrl": "urn:uuid:0a645a42-fe48-o036-0001-cdhr00hi0049",
      "resource": {
        "resourceType": "Observation",
        "id": "0a645a42-fe48-o036-0001-cdhr00hi0049",
        "meta": {
          "profile": [
            "http://build.fhir.org/ig/hl7au/au-fhir-childhealth/StructureDefinition/ncdhc-observation-oral-health-assesment"
          ]
        },
        "code": {
          "coding": [
            {
              "code": "364111005",
              "system": "http://snomed.info/sct",
              "display": "Oral cavity observable"
            }
          ]
        },
        "status": "final",
        "subject": {
          "reference": "Patient/a01bacd2-pt5c-11ea-b3de-0242ac130000",
          "display": "Baby of Lina Smith"
        },
        "effectiveDateTime": "2020-07-10T16:13:03+10:00",
        "interpretation": [
          {
            "coding": [
              {
                "code": "17621005",
                "system": "http://snomed.info/sct",
                "display": "Normal"
              }
            ]
          }
        ],
        "performer": [
          {
            "reference": "PractitionerRole/p01bacd2-pr5c-11ea-b3de-0242ac130003",
            "display": "Examiner"
          },
          {
            "reference": "Organization/o01bacd2-or5c-11ea-b3de-0242ac130002",
            "display": "Clinical Responsible Organisation"
          }
        ]
      }
    },
    {
      "fullUrl": "urn:uuid:0a645a42-fe48-o037-0001-cdhr00hi0049",
      "resource": {
        "resourceType": "Observation",
        "id": "0a645a42-fe48-o037-0001-cdhr00hi0049",
        "meta": {
          "profile": [
            "http://build.fhir.org/ig/hl7au/au-fhir-childhealth/StructureDefinition/ncdhc-observation-devolopement-assessement"
          ]
        },
        "code": {
          "coding": [
            {
              "code": "364674008",
              "system": "http://snomed.info/sct",
              "display": "Child developmental detail"
            }
          ]
        },
        "status": "final",
        "subject": {
          "reference": "Patient/a01bacd2-pt5c-11ea-b3de-0242ac130000",
          "display": "Baby of Lina Smith"
        },
        "effectiveDateTime": "2020-07-10T16:13:03+10:00",
        "interpretation": [
          {
            "coding": [
              {
                "code": "17621005",
                "system": "http://snomed.info/sct",
                "display": "Normal"
              }
            ]
          }
        ],
        "performer": [
          {
            "reference": "PractitionerRole/p01bacd2-pr5c-11ea-b3de-0242ac130003",
            "display": "Examiner"
          },
          {
            "reference": "Organization/o01bacd2-or5c-11ea-b3de-0242ac130002",
            "display": "Clinical Responsible Organisation"
          }
        ]
      }
    }
  ]
}
