{
  "resourceType": "Bundle",
  "id": "ncdhc-document-consumer-entered-milestone-example",
  "meta": {
    "profile": [
      "http://build.fhir.org/ig/hl7au/au-fhir-childhealth/StructureDefinition/ncdhc-bundle-consumer-entered-milestone-document"
    ]
  },
  "type": "document",
  "identifier": {
    "system": "urn:ietf:rfc:3986",
    "value": "urn:uuid:0c3151bd-1abf-4d64-c04d-cd1017a4c6e0"
  },
  "timestamp": "2018-11-27T16:13:03+10:00",
  "entry": [
    {
      "fullUrl": "urn:uuid:0a645a42-fe48-c001-0001-cdhr00hi0031",
      "resource": {
        "resourceType": "Composition",
        "id": "0a645a42-fe48-c001-0001-cdhr00hi0031",
        "meta": {
          "profile": [
            "http://build.fhir.org/ig/hl7au/au-fhir-childhealth/StructureDefinition/ncdhc-composition-consumer-entered-milestone"
          ]
        },
        "title": "Childhood milestone observed by parent or carer",
        "type": {
          "coding": [
            {
              "code": "CONENTRMLST",
              "system": "http://hl7.org.au/fhir/ch/v1/CodeSystem/ncdhc-hi-type-1"
            }
          ]
        },
        "category": [
          {
            "coding": [
              {
                "code": "CONDOC",
                "system": "http://hl7.org.au/fhir/ch/v1/CodeSystem/ncdhc-document-class-1"
              }
            ]
          }
        ],
        "status": "final",
        "subject": {
          "reference": "Patient/a01bacd2-pt5c-11ea-b3de-0242ac130000",
          "display": "Baby of Lina Smith"
        },
        "encounter": {
          "reference": "Encounter/0a645a42-fe48-e001-0001-cdhr00hi0031",
          "display": "home health"
        },
        "date": "2020-07-12T16:13:03+10:00",
        "author": [
          {
            "reference": "RelatedPerson/a01bacd2-rpt5c-11ea-b3de-0242ac130002",
            "display": "Mother"
          }
        ],
        "attester": [
          {
            "mode": "personal",
            "party": {
              "reference": "RelatedPerson/a01bacd2-rpt5c-11ea-b3de-0242ac130002",
              "display": "Mother"
            }
          }
        ],
        "section": [
          {
            "mode": "snapshot",
            "title": "Childhood milestone observed by parent or carer",
            "code": {
              "coding": [
                {
                  "code": "1526921000168106",
                  "system": "http://snomed.info/sct"
                }
              ]
            },
            "entry": [
              {
                "reference": "Observation/0a645a42-fe48-o001-0001-cdhr00hi0031",
                "display": "Childhood milestone observed by parent or carer"
              }
            ]
          }
        ]
      }
    },
    {
      "fullUrl": "urn:uuid:a01bacd2-pt5c-11ea-b3de-0242ac130000",
      "resource": {
        "resourceType": "Patient",
        "id": "a01bacd2-pt5c-11ea-b3de-0242ac130000",
        "meta": {
          "profile": [
            "http://build.fhir.org/ig/hl7au/au-fhir-childhealth/StructureDefinition/ncdhc-patient-child"
          ]
        },
        "identifier": [
          {
            "type": {
              "coding": [
                {
                  "system": "http://terminology.hl7.org/CodeSystem/v2-0203",
                  "code": "NI",
                  "display": "National unique individual identifier"
                }
              ],
              "text": "IHI"
            },
            "system": "http://ns.electronichealth.net.au/id/hi/ihi/1.0",
            "value": "8003608833357361"
          },
          {
            "type": {
              "coding": [
                {
                  "system": "http://terminology.hl7.org/CodeSystem/v2-0203",
                  "code": "MR",
                  "display": "Medical record number"
                }
              ],
              "text": "Medical Record Number"
            },
            "system": "http://ns.electronichealth.net.au/id/hpio-scoped/medicalrecord/1.0/8003620000000000",
            "value": "02134000",
            "assigner": {
              "display": "Blacktown Hospital"
            }
          }
        ],
        "contact": [
          {
            "relationship": [
              {
                "coding": [
                  {
                    "code": "MTH",
                    "system": "http://terminology.hl7.org/CodeSystem/v3-RoleCode"
                  }
                ]
              }
            ],
            "name": {
              "given": [
                "Lina"
              ],
              "family": "Smith"
            }
          }
        ],
        "active": true,
        "name": [
          {
            "use": "temp",
            "given": [
              "Baby of Lina"
            ],
            "family": "Smith"
          }
        ],
        "gender": "male",
        "birthDate": "2020-08-01"
      }
    },
    {
      "fullUrl": "urn:uuid:0a645a42-fe48-e001-0001-cdhr00hi0031",
      "resource": {
        "resourceType": "Encounter",
        "id": "0a645a42-fe48-e001-0001-cdhr00hi0031",
        "meta": {
          "profile": [
            "http://build.fhir.org/ig/hl7au/au-fhir-childhealth/StructureDefinition/ncdhc-encounter-cdhr"
          ]
        },
        "status": "finished",
        "class": {
          "code": "HH",
          "system": "http://terminology.hl7.org/CodeSystem/v3-ActCode",
          "display": "home health"
        },
        "subject": {
          "reference": "Patient/a01bacd2-pt5c-11ea-b3de-0242ac130000",
          "display": "Baby of Lina Smith"
        },
        "period": {
          "start": "2020-07-10T16:13:03+10:00",
          "end": "2020-07-10T16:13:03+10:00"
        }
      }
    },
    {
      "fullUrl": "urn:uuid:a01bacd2-rpt5c-11ea-b3de-0242ac130002",
      "resource": {
        "resourceType": "RelatedPerson",
        "id": "a01bacd2-rpt5c-11ea-b3de-0242ac130002",
        "meta": {
          "profile": [
            "http://build.fhir.org/ig/hl7au/au-fhir-childhealth/StructureDefinition/ncdhc-related-person"
          ]
        },
        "active": true,
        "name": [
          {
            "given": [
              "Lina Smith"
            ]
          }
        ],
        "patient": {
          "reference": "Patient/a01bacd2-pt5c-11ea-b3de-0242ac130000",
          "display": "Baby of Lina Smith"
        },
        "gender": "female"
      }
    },
    {
      "fullUrl": "urn:uuid:0a645a42-fe48-o001-0001-cdhr00hi0031",
      "resource": {
        "resourceType": "Observation",
        "id": "0a645a42-fe48-o001-0001-cdhr00hi0031",
        "meta": {
          "profile": [
            "http://build.fhir.org/ig/hl7au/au-fhir-childhealth/StructureDefinition/ncdhc-observation-consumer-entered-milestone"
          ]
        },
        "code": {
          "coding": [
            {
              "code": "364675009",
              "system": "http://snomed.info/sct",
              "display": "Feature of infant milestones"
            }
          ]
        },
        "status": "final",
        "subject": {
          "reference": "Patient/a01bacd2-pt5c-11ea-b3de-0242ac130000",
          "display": "Baby of Lina Smith"
        },
        "effectiveDateTime": "2020-07-10T16:13:03+10:00",
        "valueCodeableConcept": {
          "coding": [
            {
              "code": "1365211000168106",
              "system": "http://snomed.info/sct",
              "display": "Infant smiles at people"
            }
          ]
        },
        "performer": [
          {
            "reference": "RelatedPerson/a01bacd2-rpt5c-11ea-b3de-0242ac130002",
            "display": "Mother"
          }
        ]
      }
    }
  ]
}
