{
  "resourceType": "Bundle",
  "id": "ncdhc-document-parental-observation-example",
  "meta": {
    "profile": [
      "http://build.fhir.org/ig/hl7au/au-fhir-childhealth/StructureDefinition/ncdhc-bundle-parental-observation-document"
    ]
  },
  "type": "document",
  "identifier": {
    "system": "urn:ietf:rfc:3986",
    "value": "urn:uuid:0c3151bd-1abf-4d64-b04d-cd1017a4c6e0"
  },
  "timestamp": "2018-11-27T16:13:03+10:00",
  "entry": [
    {
      "fullUrl": "urn:uuid:0a645a42-fe48-P001-0001-cdhr00hi0048",
      "resource": {
        "resourceType": "Composition",
        "id": "0a645a42-fe48-P001-0001-cdhr00hi0048",
        "meta": {
          "profile": [
            "http://build.fhir.org/ig/hl7au/au-fhir-childhealth/StructureDefinition/ncdhc-composition-document-parental-observation"
          ]
        },
        "title": "Health observation provided by parent or carer",
        "type": {
          "coding": [
            {
              "code": "PARENTOBS",
              "system": "https://healthterminologies.gov.au/fhir/CodeSystem/ncdhc-hi-type-2",
			  "display": "Parental Observation"
            }
          ]
        },
        "category": [
          {
            "coding": [
              {
                "code": "CONDOC",
                "system": "https://healthterminologies.gov.au/fhir/CodeSystem/ncdhc-hi-category-1",
			    "display": "Consumer Document"
              }
            ]
          }
        ],
        "section": [
          {
            "code": {
              "coding": [
                {
                  "code": "1526911000168104",
                  "system": "http://snomed.info/sct"
                }
              ]
            },
            "mode": "snapshot",
            "title": "Health observation provided by parent or carer",
            "entry": [
              {
                "reference": "Observation/0a645a42-fe48-o001-0001-cdhr00hi0048",
                "display": "body Weight"
              },
              {
                "reference": "Observation/0a645a42-fe48-o002-0001-cdhr00hi0048",
                "display": "body Length"
              },
              {
                "reference": "Observation/0a645a42-fe48-o003-0001-cdhr00hi0048",
                "display": "Head Circumference"
              },
              {
                "reference": "Observation/0a645a42-fe48-o004-0001-cdhr00hi0048",
                "display": "BMI of child - System Calculated"
              }
            ]
          }
        ],
        "status": "final",
        "subject": {
          "reference": "Patient/a01bacd2-pt5c-11ea-b3de-0242ac130000",
          "display": "Baby of Lina Smith"
        },
        "encounter": {
          "reference": "Encounter/0a645a42-fe48-e001-0001-cdhr00hi0048",
          "display": "home health"
        },
        "date": "2020-08-12T16:13:03+10:00",
        "author": [
          {
            "reference": "RelatedPerson/a01bacd2-rpt5c-11ea-b3de-0242ac130002",
            "display": "Mother"
          }
        ],
        "attester": [
          {
            "mode": "personal",
            "party": {
              "reference": "RelatedPerson/a01bacd2-rpt5c-11ea-b3de-0242ac130002",
              "display": "Mother"
            }
          }
        ]
      }
    },
    {
      "fullUrl": "urn:uuid:a01bacd2-pt5c-11ea-b3de-0242ac130000",
      "resource": {
        "resourceType": "Patient",
        "id": "a01bacd2-pt5c-11ea-b3de-0242ac130000",
        "meta": {
          "profile": [
            "http://build.fhir.org/ig/hl7au/au-fhir-childhealth/StructureDefinition/ncdhc-patient-child"
          ]
        },
        "identifier": [
          {
            "type": {
              "coding": [
                {
                  "system": "http://terminology.hl7.org/CodeSystem/v2-0203",
                  "code": "NI",
                  "display": "National unique individual identifier"
                }
              ],
              "text": "IHI"
            },
            "system": "http://ns.electronichealth.net.au/id/hi/ihi/1.0",
            "value": "8003608833357361"
          },
          {
            "type": {
              "coding": [
                {
                  "system": "http://terminology.hl7.org/CodeSystem/v2-0203",
                  "code": "MR",
                  "display": "Medical record number"
                }
              ],
              "text": "Medical Record Number"
            },
            "system": "http://ns.electronichealth.net.au/id/hpio-scoped/medicalrecord/1.0/8003620000000000",
            "value": "02134000",
            "assigner": {
              "display": "Blacktown Hospital"
            }
          }
        ],
        "contact": [
          {
            "relationship": [
              {
                "coding": [
                  {
                    "code": "MTH",
                    "system": "http://terminology.hl7.org/CodeSystem/v3-RoleCode"
                  }
                ]
              }
            ],
            "name": {
              "given": [
                "Lina"
              ],
              "family": "Smith"
            }
          }
        ],
        "active": true,
        "name": [
          {
            "use": "temp",
            "given": [
              "Baby of Lina"
            ],
            "family": "Smith"
          }
        ],
        "gender": "male",
        "birthDate": "2020-08-01"
      }
    },
    {
      "fullUrl": "urn:uuid:0a645a42-fe48-e001-0001-cdhr00hi0048",
      "resource": {
        "resourceType": "Encounter",
        "id": "0a645a42-fe48-e001-0001-cdhr00hi0048",
        "meta": {
          "profile": [
            "http://build.fhir.org/ig/hl7au/au-fhir-childhealth/StructureDefinition/ncdhc-encounter-cdhr"
          ]
        },
        "status": "finished",
        "class": {
          "code": "HH",
          "system": "http://terminology.hl7.org/CodeSystem/v3-ActCode",
          "display": "home health"
        },
        "subject": {
          "reference": "Patient/a01bacd2-pt5c-11ea-b3de-0242ac130000",
          "display": "Baby of Lina Smith"
        },
        "period": {
          "start": "2020-12-10T16:13:03+10:00",
          "end": "2020-12-10T16:13:03+10:00"
        }
      }
    },
    {
      "fullUrl": "urn:uuid:a01bacd2-rpt5c-11ea-b3de-0242ac130002",
      "resource": {
        "resourceType": "RelatedPerson",
        "id": "a01bacd2-rpt5c-11ea-b3de-0242ac130002",
        "meta": {
          "profile": [
            "http://build.fhir.org/ig/hl7au/au-fhir-childhealth/StructureDefinition/ncdhc-related-person"
          ]
        },
        "active": true,
        "name": [
          {
            "given": [
              "Lina Smith"
            ]
          }
        ],
        "patient": {
          "reference": "Patient/a01bacd2-pt5c-11ea-b3de-0242ac130000",
          "display": "Baby of Lina Smith"
        },
        "gender": "female"
      }
    },
    {
      "fullUrl": "urn:uuid:0a645a42-fe48-o001-0001-cdhr00hi0048",
      "resource": {
        "resourceType": "Observation",
        "id": "0a645a42-fe48-o001-0001-cdhr00hi0048",
        "meta": {
          "profile": [
            "http://build.fhir.org/ig/hl7au/au-fhir-childhealth/StructureDefinition/ncdhc-observation-vitalsign-bodyweight"
          ]
        },
        "category": [
          {
            "coding": [
              {
                "system": "http://terminology.hl7.org/CodeSystem/observation-category",
                "code": "vital-signs"
              }
            ]
          }
        ],
        "code": {
          "coding": [
            {
              "system": "http://loinc.org",
              "code": "29463-7",
              "display": "Body weight"
            },
            {
              "system": "http://snomed.info/sct",
              "code": "27113001",
              "display": "Body weight"
            }
          ]
        },
        "valueQuantity": {
          "code": "kg",
          "system": "http://unitsofmeasure.org",
          "value": 4,
          "unit": "kg"
        },
        "status": "final",
        "subject": {
          "reference": "Patient/a01bacd2-pt5c-11ea-b3de-0242ac130000",
          "display": "Baby of Lina Smith"
        },
        "effectiveDateTime": "2020-12-10T16:13:03+10:00",
        "performer": [
          {
            "reference": "RelatedPerson/a01bacd2-rpt5c-11ea-b3de-0242ac130002",
            "display": "Mother"
          }
        ]
      }
    },
    {
      "fullUrl": "urn:uuid:0a645a42-fe48-o002-0001-cdhr00hi0048",
      "resource": {
        "resourceType": "Observation",
        "id": "0a645a42-fe48-o002-0001-cdhr00hi0048",
        "meta": {
          "profile": [
            "http://build.fhir.org/ig/hl7au/au-fhir-childhealth/StructureDefinition/ncdhc-observation-vitalsign-bodyheight"
          ]
        },
        "category": [
          {
            "coding": [
              {
                "system": "http://terminology.hl7.org/CodeSystem/observation-category",
                "code": "vital-signs"
              }
            ]
          }
        ],
        "code": {
          "coding": [
            {
              "system": "http://loinc.org",
              "code": "8302-2",
              "display": "Body height"
            },
            {
              "system": "http://snomed.info/sct",
              "code": "50373000",
              "display": "Body height measure"
            }
          ]
        },
        "valueQuantity": {
          "code": "cm",
          "system": "http://unitsofmeasure.org",
          "value": 220.1,
          "unit": "cm"
        },
        "status": "final",
        "subject": {
          "reference": "Patient/a01bacd2-pt5c-11ea-b3de-0242ac130000",
          "display": "Baby of Lina Smith"
        },
        "effectiveDateTime": "2020-12-10T16:13:03+10:00",
        "performer": [
          {
            "reference": "RelatedPerson/a01bacd2-rpt5c-11ea-b3de-0242ac130002",
            "display": "Mother"
          }
        ],
        "interpretation": [
          {
            "coding": [
              {
                "code": "17621005",
                "system": "http://snomed.info/sct",
                "display": "Normal"
              }
            ]
          }
        ],
        "note": [
          {
            "text": "patient's height is normal"
          }
        ]
      }
    },
    {
      "fullUrl": "urn:uuid:0a645a42-fe48-o003-0001-cdhr00hi0048",
      "resource": {
        "resourceType": "Observation",
        "id": "0a645a42-fe48-o003-0001-cdhr00hi0048",
        "meta": {
          "profile": [
            "http://build.fhir.org/ig/hl7au/au-fhir-childhealth/StructureDefinition/ncdhc-observation-vitalsign-head-circumference"
          ]
        },
        "category": [
          {
            "coding": [
              {
                "system": "http://terminology.hl7.org/CodeSystem/observation-category",
                "code": "vital-signs"
              }
            ]
          }
        ],
        "code": {
          "coding": [
            {
              "system": "http://loinc.org",
              "code": "9843-4",
              "display": "Head Occipital-frontal circumference"
            },
            {
              "system": "http://snomed.info/sct",
              "code": "363812007",
              "display": "Head Circumference"
            }
          ]
        },
        "valueQuantity": {
          "code": "cm",
          "system": "http://unitsofmeasure.org",
          "value": 35,
          "unit": "cm"
        },
        "status": "final",
        "subject": {
          "reference": "Patient/a01bacd2-pt5c-11ea-b3de-0242ac130000",
          "display": "Baby of Lina Smith"
        },
        "effectiveDateTime": "2020-08-10T16:13:03+10:00",
        "performer": [
          {
            "reference": "RelatedPerson/a01bacd2-rpt5c-11ea-b3de-0242ac130002",
            "display": "Mother"
          }
        ]
      }
    },
    {
      "fullUrl": "urn:uuid:0a645a42-fe48-o004-0001-cdhr00hi0048",
      "resource": {
        "resourceType": "Observation",
        "id": "0a645a42-fe48-o004-0001-cdhr00hi0048",
        "meta": {
          "profile": [
            "http://build.fhir.org/ig/hl7au/au-fhir-childhealth/StructureDefinition/ncdhc-observation-vitalsign-bmi"
          ]
        },
        "category": [
          {
            "coding": [
              {
                "system": "http://terminology.hl7.org/CodeSystem/observation-category",
                "code": "vital-signs"
              }
            ]
          }
        ],
        "code": {
          "coding": [
            {
              "system": "http://loinc.org",
              "code": "39156-5",
              "display": "Body mass index (BMI) [Ratio]"
            },
            {
              "system": "http://snomed.info/sct",
              "code": "60621009",
              "display": "Body mass index"
            }
          ]
        },
        "valueQuantity": {
          "code": "kg/m2",
          "system": "http://unitsofmeasure.org",
          "value": 3.1,
          "unit": "kg/m2"
        },
        "status": "final",
        "subject": {
          "reference": "Patient/a01bacd2-pt5c-11ea-b3de-0242ac130000",
          "display": "Baby of Lina Smith"
        },
        "effectiveDateTime": "2020-12-10T16:13:03+10:00",
        "performer": [
          {
            "reference": "RelatedPerson/a01bacd2-rpt5c-11ea-b3de-0242ac130002",
            "display": "Mother"
          }
        ]
      }
    }
  ]
}
