{
  "resourceType": "Bundle",
  "id": "ncdhc-document-newborn-examination-example",
  "meta": {
    "profile": [
      "http://build.fhir.org/ig/hl7au/au-fhir-childhealth/StructureDefinition/ncdhc-bundle-newborn-exam-document"
    ]
  },
  "type": "document",
  "identifier": {
    "system": "urn:ietf:rfc:3986",
    "value": "urn:uuid:0c3151bd-1abf-4d64-b04d-cd1017a4c6e0"
  },
  "timestamp": "2018-11-27T16:13:03+10:00",
  "entry": [
    {
      "fullUrl": "urn:uuid:0a645a42-fe48-c0019-0001-cdhr00hi0005",
      "resource": {
        "resourceType": "Composition",
        "id": "0a645a42-fe48-c019-0001-cdhr00hi0005",
        "meta": {
          "profile": [
            "http://build.fhir.org/ig/hl7au/au-fhir-childhealth/StructureDefinition/ncdhc-composition-document-nb-examination"
          ]
        },
        "title": "Newborn Examination",
        "type": {
          "coding": [
            {
              "code": "NBEXAM",
              "system": "https://healthterminologies.gov.au/fhir/CodeSystem/ncdhc-hi-type-2",
			  "display": "Newborn Examination"
            }
          ]
        },
		"category": [
          {
            "coding": [
              {
                "code": "EXAM",
                "system": "https://healthterminologies.gov.au/fhir/CodeSystem/ncdhc-hi-category-1",
				"display": "Clinical Examination Document"
              }
            ]
          }
        ],
        "section": [
          {
            "title": "Neonatal screening",
            "code": {
              "coding": [
                {
                  "code": "60151004",
                  "system": "http://snomed.info/sct",
                  "display": "Neonatal screening"
                }
              ]
            },
            "mode": "snapshot",
            "entry": [
              {
                "reference": "Observation/0a645a42-fe48-o000-0001-cdhr00hi0005",
                "display": "Sex"
              },
              {
                "reference": "Observation/0a645a42-fe48-o001-0001-cdhr00hi0005",
                "display": "Child examination: fontanelle"
              },
              {
                "reference": "Observation/0a645a42-fe48-o002-0001-cdhr00hi0005",
                "display": "Eye/vision observable"
              },
              {
                "reference": "Observation/0a645a42-fe48-o003-0001-cdhr00hi0005",
                "display": "Ear observable"
              },
              {
                "reference": "Observation/0a645a42-fe48-o004-0001-cdhr00hi0005",
                "display": "Palate finding"
              },
              {
                "reference": "Observation/0a645a42-fe48-o005-0001-cdhr00hi0005",
                "display": "Cardiovascular function"
              },
              {
                "reference": "Observation/0a645a42-fe48-o006-0001-cdhr00hi0005",
                "display": "Femoral pulse"
              },
              {
                "reference": "Observation/0a645a42-fe48-o007-0001-cdhr00hi0005",
                "display": "Respiratory Rate"
              },
              {
                "reference": "Observation/0a645a42-fe48-o008-0001-cdhr00hi0005",
                "display": "Abdominal examination"
              },
              {
                "reference": "Observation/0a645a42-fe48-o009-0001-cdhr00hi0005",
                "display": "Umbilical stump observable"
              },
              {
                "reference": "Observation/0a645a42-fe48-o010-0001-cdhr00hi0005",
                "display": "Appearance of anus"
              },
              {
                "reference": "Observation/0a645a42-fe48-o011-0001-cdhr00hi0005",
                "display": "Genital observable"
              },
              {
                "reference": "Observation/0a645a42-fe48-o012-0001-cdhr00hi0005",
                "display": "Position of testicle"
              },
              {
                "reference": "Observation/0a645a42-fe48-o013-0001-cdhr00hi0005",
                "display": "Musculoskeletal observable"
              },
              {
                "reference": "Observation/0a645a42-fe48-o014-0001-cdhr00hi0005",
                "display": "Limb structure"
              },
              {
                "reference": "Observation/0a645a42-fe48-o015-0001-cdhr00hi0005",
                "display": "Spinal Region Observation"
              },
              {
                "reference": "Observation/0a645a42-fe48-o016-0001-cdhr00hi0005",
                "display": "Hip joint stability"
              },
              {
                "reference": "Observation/0a645a42-fe48-o017-0001-cdhr00hi0005",
                "display": "Skin observable"
              },
              {
                "reference": "Observation/0a645a42-fe48-o018-0001-cdhr00hi0005",
                "display": "Neurological Observable"
              }
            ]
          }
        ],
        "status": "final",
        "subject": {
          "reference": "Patient/a01bacd2-pt5c-11ea-b3de-0242ac130000",
          "display": "Baby of Lina Smith"
        },
        "encounter": {
          "reference": "Encounter/0a645a42-fe48-e020-0001-cdhr00hi0005",
          "display": "Consultation on 10th Aug 2020 at Downunder Hospital"
        },
        "date": "2020-08-12T16:13:03+10:00",
        "author": [
          {
            "reference": "Practitioner/p01bacd2-or5c-11ea-b3de-0242ac130002",
            "display": "Helen Mayo"
          }
        ],
        "attester": [
          {
            "mode": "professional",
            "party": {
              "reference": "Organization/o01bacd2-or5c-11ea-b3de-0242ac130002",
              "display": "Downunder Hospital"
            }
          }
        ],
        "custodian": {
          "reference": "Organization/o01bacd2-or5c-11ea-b3de-0242ac130002",
          "display": "Downunder Hospital"
        }
      }
    },
    {
      "fullUrl": "urn:uuid:a01bacd2-pt5c-11ea-b3de-0242ac130000",
      "resource": {
        "resourceType": "Patient",
        "id": "a01bacd2-pt5c-11ea-b3de-0242ac130000",
        "meta": {
          "profile": [
            "http://build.fhir.org/ig/hl7au/au-fhir-childhealth/StructureDefinition/ncdhc-patient-child"
          ]
        },
        "identifier": [
          {
            "type": {
              "coding": [
                {
                  "system": "http://terminology.hl7.org/CodeSystem/v2-0203",
                  "code": "NI",
                  "display": "National unique individual identifier"
                }
              ],
              "text": "IHI"
            },
            "system": "http://ns.electronichealth.net.au/id/hi/ihi/1.0",
            "value": "8003608833357361"
          },
          {
            "type": {
              "coding": [
                {
                  "system": "http://terminology.hl7.org/CodeSystem/v2-0203",
                  "code": "MR",
                  "display": "Medical record number"
                }
              ],
              "text": "Medical Record Number"
            },
            "system": "http://ns.electronichealth.net.au/id/hpio-scoped/medicalrecord/1.0/8003620000000000",
            "value": "02134000",
            "assigner": {
              "display": "Blacktown Hospital"
            }
          }
        ],
        "contact": [
          {
            "relationship": [
              {
                "coding": [
                  {
                    "code": "MTH",
                    "system": "http://terminology.hl7.org/CodeSystem/v3-RoleCode"
                  }
                ]
              }
            ],
            "name": {
              "given": [
                "Lina"
              ],
              "family": "Smith"
            }
          }
        ],
        "active": true,
        "name": [
          {
            "use": "temp",
            "given": [
              "Baby of Lina"
            ],
            "family": "Smith"
          }
        ],
        "gender": "male",
        "birthDate": "2020-08-01"
      }
    },
    {
      "fullUrl": "urn:uuid:0a645a42-fe48-e020-0001-cdhr00hi0005",
      "resource": {
        "resourceType": "Encounter",
        "id": "0a645a42-fe48-e020-0001-cdhr00hi0005",
        "meta": {
          "profile": [
            "http://build.fhir.org/ig/hl7au/au-fhir-childhealth/StructureDefinition/ncdhc-encounter-cdhr"
          ]
        },
        "status": "finished",
        "class": {
          "code": "AMB",
          "system": "http://terminology.hl7.org/CodeSystem/v3-ActCode",
          "display": "ambulatory"
        },
        "subject": {
          "reference": "Patient/a01bacd2-pt5c-11ea-b3de-0242ac130000",
          "display": "Baby of Lina Smith"
        },
        "period": {
          "start": "2020-08-10T16:13:03+10:00",
          "end": "2020-08-10T16:13:03+10:00"
        },
        "contained": [
          {
            "resourceType": "Location",
            "id": "0a645a42-fe48-l021-0001-cdhr00hi0005",
            "name": "Downunder Hospital"
          }
        ],
        "location": [
          {
            "location": {
              "reference": "#0a645a42-fe48-l021-0001-cdhr00hi0005",
              "display": "Downunder Hospital"
            },
            "status": "completed"
          }
        ]
      }
    },
    {
      "fullUrl": "urn:uuid:p01bacd2-or5c-11ea-b3de-0242ac130002",
      "resource": {
        "resourceType": "Practitioner",
        "id": "p01bacd2-or5c-11ea-b3de-0242ac130002",
        "meta": {
          "profile": [
            "http://build.fhir.org/ig/hl7au/au-fhir-childhealth/StructureDefinition/ncdhc-practitioner"
          ]
        },
        "identifier": [
          {
            "type": {
              "coding": [
                {
                  "system": "http://terminology.hl7.org/CodeSystem/v2-0203",
                  "code": "NPI",
                  "display": "National provider identifier"
                }
              ],
              "text": "HPI-I"
            },
            "system": "http://ns.electronichealth.net.au/id/hi/hpii/1.0",
            "value": "8003619900015717"
          }
        ],
        "active": true,
        "name": [
          {
            "given": [
              "Helen"
            ],
            "family": "Mayo"
          }
        ]
      }
    },
    {
      "fullUrl": "urn:uuid:o01bacd2-or5c-11ea-b3de-0242ac130002",
      "resource": {
        "resourceType": "Organization",
        "id": "o01bacd2-or5c-11ea-b3de-0242ac130002",
        "meta": {
          "profile": [
            "http://build.fhir.org/ig/hl7au/au-fhir-childhealth/StructureDefinition/ncdhc-organisation"
          ]
        },
        "identifier": [
          {
            "type": {
              "coding": [
                {
                  "system": "http://terminology.hl7.org.au/CodeSystem/v2-0203",
                  "code": "NOI",
                  "display": "National Organisation Identifier"
                }
              ],
              "text": "HPI-O"
            },
            "system": "http://ns.electronichealth.net.au/id/hi/hpio/1.0",
            "value": "8003621566684455"
          }
        ],
        "active": true,
        "name": "Downunder Hospital"
      }
    },
    {
      "fullUrl": "urn:uuid:0a645a42-fe48-o017-0001-cdhr00hi0005",
      "resource": {
        "resourceType": "Observation",
        "id": "0a645a42-fe48-o017-0001-cdhr00hi0005",
        "meta": {
          "profile": [
            "http://build.fhir.org/ig/hl7au/au-fhir-childhealth/StructureDefinition/ncdhc-observation-skin-exam"
          ]
        },
        "code": {
          "coding": [
            {
              "code": "364528001",
              "system": "http://snomed.info/sct",
              "display": "Skin observable"
            }
          ]
        },
        "status": "final",
        "subject": {
          "reference": "Patient/a01bacd2-pt5c-11ea-b3de-0242ac130000",
          "display": "Baby of Lina Smith"
        },
        "effectiveDateTime": "2020-08-10T16:13:03+10:00",
        "interpretation": [
          {
            "coding": [
              {
                "code": "17621005",
                "system": "http://snomed.info/sct",
                "display": "Normal"
              }
            ]
          }
        ],
        "performer": [
          {
            "reference": "PractitionerRole/p01bacd2-pr5c-11ea-b3de-0242ac130003",
            "display": "Examiner"
          },
          {
            "reference": "Organization/o01bacd2-or5c-11ea-b3de-0242ac130002",
            "display": "Clinical Responsible Organisation"
          }
        ]
      }
    },
    {
      "fullUrl": "urn:uuid:0a645a42-fe48-o001-0001-cdhr00hi0005",
      "resource": {
        "resourceType": "Observation",
        "id": "0a645a42-fe48-o001-0001-cdhr00hi0005",
        "meta": {
          "profile": [
            "http://build.fhir.org/ig/hl7au/au-fhir-childhealth/StructureDefinition/ncdhc-observation-head-fontanelles-exam"
          ]
        },
        "code": {
          "coding": [
            {
              "code": "170190000",
              "system": "http://snomed.info/sct",
              "display": "Child examination: fontanelle"
            }
          ]
        },
        "status": "final",
        "subject": {
          "reference": "Patient/a01bacd2-pt5c-11ea-b3de-0242ac130000",
          "display": "Baby of Lina Smith"
        },
        "effectiveDateTime": "2020-08-10T16:13:03+10:00",
        "interpretation": [
          {
            "coding": [
              {
                "code": "17621005",
                "system": "http://snomed.info/sct",
                "display": "Normal"
              }
            ]
          }
        ],
        "performer": [
          {
            "reference": "PractitionerRole/p01bacd2-pr5c-11ea-b3de-0242ac130003",
            "display": "Examiner"
          },
          {
            "reference": "Organization/o01bacd2-or5c-11ea-b3de-0242ac130002",
            "display": "Clinical Responsible Organisation"
          }
        ]
      }
    },
    {
      "fullUrl": "urn:uuid:0a645a42-fe48-o002-0001-cdhr00hi0005",
      "resource": {
        "resourceType": "Observation",
        "id": "0a645a42-fe48-o002-0001-cdhr00hi0005",
        "meta": {
          "profile": [
            "http://build.fhir.org/ig/hl7au/au-fhir-childhealth/StructureDefinition/ncdhc-observation-eyes-exam"
          ]
        },
        "code": {
          "coding": [
            {
              "code": "363926002",
              "system": "http://snomed.info/sct",
              "display": "Eye/vision observable"
            }
          ]
        },
        "component": [
          {
            "code": {
              "coding": [
                {
                  "code": "18944008",
                  "system": "http://snomed.info/sct",
                  "display": "Right eye structure"
                }
              ]
            },
            "interpretation": [
              {
                "coding": [
                  {
                    "code": "17621005",
                    "system": "http://snomed.info/sct",
                    "display": "Normal"
                  }
                ]
              }
            ]
          },
          {
            "code": {
              "coding": [
                {
                  "code": "8966001",
                  "system": "http://snomed.info/sct",
                  "display": "Left eye structure"
                }
              ]
            },
            "interpretation": [
              {
                "coding": [
                  {
                    "code": "17621005",
                    "system": "http://snomed.info/sct",
                    "display": "Normal"
                  }
                ]
              }
            ]
          }
        ],
        "status": "final",
        "subject": {
          "reference": "Patient/a01bacd2-pt5c-11ea-b3de-0242ac130000",
          "display": "Baby of Lina Smith"
        },
        "effectiveDateTime": "2020-08-10T16:13:03+10:00",
        "performer": [
          {
            "reference": "PractitionerRole/p01bacd2-pr5c-11ea-b3de-0242ac130003",
            "display": "Examiner"
          },
          {
            "reference": "Organization/o01bacd2-or5c-11ea-b3de-0242ac130002",
            "display": "Clinical Responsible Organisation"
          }
        ]
      }
    },
    {
      "fullUrl": "urn:uuid:0a645a42-fe48-o003-0001-cdhr00hi0005",
      "resource": {
        "resourceType": "Observation",
        "id": "0a645a42-fe48-o003-0001-cdhr00hi0005",
        "meta": {
          "profile": [
            "http://build.fhir.org/ig/hl7au/au-fhir-childhealth/StructureDefinition/ncdhc-observation-ears-exam"
          ]
        },
        "code": {
          "coding": [
            {
              "code": "363991003",
              "system": "http://snomed.info/sct",
              "display": "Ear observable"
            }
          ]
        },
        "component": [
          {
            "code": {
              "coding": [
                {
                  "code": "25577004",
                  "system": "http://snomed.info/sct",
                  "display": "Right ear structure"
                }
              ]
            },
            "interpretation": [
              {
                "coding": [
                  {
                    "code": "17621005",
                    "system": "http://snomed.info/sct",
                    "display": "Normal"
                  }
                ]
              }
            ]
          },
          {
            "code": {
              "coding": [
                {
                  "code": "89644007",
                  "system": "http://snomed.info/sct",
                  "display": "Left ear structure"
                }
              ]
            },
            "interpretation": [
              {
                "coding": [
                  {
                    "code": "17621005",
                    "system": "http://snomed.info/sct",
                    "display": "Normal"
                  }
                ]
              }
            ]
          }
        ],
        "status": "final",
        "subject": {
          "reference": "Patient/a01bacd2-pt5c-11ea-b3de-0242ac130000",
          "display": "Baby of Lina Smith"
        },
        "effectiveDateTime": "2020-08-10T16:13:03+10:00",
        "performer": [
          {
            "reference": "PractitionerRole/p01bacd2-pr5c-11ea-b3de-0242ac130003",
            "display": "Examiner"
          },
          {
            "reference": "Organization/o01bacd2-or5c-11ea-b3de-0242ac130002",
            "display": "Clinical Responsible Organisation"
          }
        ]
      }
    },
    {
      "fullUrl": "urn:uuid:0a645a42-fe48-o004-0001-cdhr00hi0005",
      "resource": {
        "resourceType": "Observation",
        "id": "0a645a42-fe48-o004-0001-cdhr00hi0005",
        "meta": {
          "profile": [
            "http://build.fhir.org/ig/hl7au/au-fhir-childhealth/StructureDefinition/ncdhc-observation-mouth-palate-exam"
          ]
        },
        "code": {
          "coding": [
            {
              "code": "249390006",
              "system": "http://snomed.info/sct",
              "display": "Palate finding"
            }
          ]
        },
        "status": "final",
        "subject": {
          "reference": "Patient/a01bacd2-pt5c-11ea-b3de-0242ac130000",
          "display": "Baby of Lina Smith"
        },
        "effectiveDateTime": "2020-08-10T16:13:03+10:00",
        "interpretation": [
          {
            "coding": [
              {
                "code": "17621005",
                "system": "http://snomed.info/sct",
                "display": "Normal"
              }
            ]
          }
        ],
        "performer": [
          {
            "reference": "PractitionerRole/p01bacd2-pr5c-11ea-b3de-0242ac130003",
            "display": "Examiner"
          },
          {
            "reference": "Organization/o01bacd2-or5c-11ea-b3de-0242ac130002",
            "display": "Clinical Responsible Organisation"
          }
        ]
      }
    },
    {
      "fullUrl": "urn:uuid:0a645a42-fe48-o005-0001-cdhr00hi0005",
      "resource": {
        "resourceType": "Observation",
        "id": "0a645a42-fe48-o005-0001-cdhr00hi0005",
        "meta": {
          "profile": [
            "http://build.fhir.org/ig/hl7au/au-fhir-childhealth/StructureDefinition/ncdhc-observation-cardiovascular-heart-exam"
          ]
        },
        "code": {
          "coding": [
            {
              "code": "70337006",
              "system": "http://snomed.info/sct",
              "display": "Cardiovascular function"
            }
          ]
        },
        "status": "final",
        "subject": {
          "reference": "Patient/a01bacd2-pt5c-11ea-b3de-0242ac130000",
          "display": "Baby of Lina Smith"
        },
        "effectiveDateTime": "2020-08-10T16:13:03+10:00",
        "interpretation": [
          {
            "coding": [
              {
                "code": "17621005",
                "system": "http://snomed.info/sct",
                "display": "Normal"
              }
            ]
          }
        ],
        "performer": [
          {
            "reference": "PractitionerRole/p01bacd2-pr5c-11ea-b3de-0242ac130003",
            "display": "Examiner"
          },
          {
            "reference": "Organization/o01bacd2-or5c-11ea-b3de-0242ac130002",
            "display": "Clinical Responsible Organisation"
          }
        ]
      }
    },
    {
      "fullUrl": "urn:uuid:0a645a42-fe48-o006-0001-cdhr00hi0005",
      "resource": {
        "resourceType": "Observation",
        "id": "0a645a42-fe48-o006-0001-cdhr00hi0005",
        "meta": {
          "profile": [
            "http://build.fhir.org/ig/hl7au/au-fhir-childhealth/StructureDefinition/ncdhc-observation-femoral-pulses-exam"
          ]
        },
        "code": {
          "coding": [
            {
              "code": "67316000",
              "system": "http://snomed.info/sct",
              "display": "Femoral pulse"
            }
          ]
        },
        "component": [
          {
            "code": {
              "coding": [
                {
                  "code": "69833005",
                  "system": "http://snomed.info/sct",
                  "display": "Structure of right femoral artery"
                }
              ]
            },
            "interpretation": [
              {
                "coding": [
                  {
                    "code": "17621005",
                    "system": "http://snomed.info/sct",
                    "display": "Normal"
                  }
                ]
              }
            ]
          },
          {
            "code": {
              "coding": [
                {
                  "code": "113270003",
                  "system": "http://snomed.info/sct",
                  "display": "Structure of left femoral artery"
                }
              ]
            },
            "interpretation": [
              {
                "coding": [
                  {
                    "code": "17621005",
                    "system": "http://snomed.info/sct",
                    "display": "Normal"
                  }
                ]
              }
            ]
          }
        ],
        "status": "final",
        "subject": {
          "reference": "Patient/a01bacd2-pt5c-11ea-b3de-0242ac130000",
          "display": "Baby of Lina Smith"
        },
        "effectiveDateTime": "2020-08-10T16:13:03+10:00",
        "performer": [
          {
            "reference": "PractitionerRole/p01bacd2-pr5c-11ea-b3de-0242ac130003",
            "display": "Examiner"
          },
          {
            "reference": "Organization/o01bacd2-or5c-11ea-b3de-0242ac130002",
            "display": "Clinical Responsible Organisation"
          }
        ]
      }
    },
    {
      "fullUrl": "urn:uuid:0a645a42-fe48-o007-0001-cdhr00hi0005",
      "resource": {
        "resourceType": "Observation",
        "id": "0a645a42-fe48-o007-0001-cdhr00hi0005",
        "meta": {
          "profile": [
            "http://build.fhir.org/ig/hl7au/au-fhir-childhealth/StructureDefinition/ncdhc-observation-respiratory-rate-exam"
          ]
        },
        "code": {
          "coding": [
            {
              "code": "86290005",
              "system": "http://snomed.info/sct",
              "display": "Respiratory rate"
            }
          ]
        },
        "status": "final",
        "subject": {
          "reference": "Patient/a01bacd2-pt5c-11ea-b3de-0242ac130000",
          "display": "Baby of Lina Smith"
        },
        "effectiveDateTime": "2020-08-10T16:13:03+10:00",
        "interpretation": [
          {
            "coding": [
              {
                "code": "17621005",
                "system": "http://snomed.info/sct",
                "display": "Normal"
              }
            ]
          }
        ],
        "performer": [
          {
            "reference": "PractitionerRole/p01bacd2-pr5c-11ea-b3de-0242ac130003",
            "display": "Examiner"
          },
          {
            "reference": "Organization/o01bacd2-or5c-11ea-b3de-0242ac130002",
            "display": "Clinical Responsible Organisation"
          }
        ]
      }
    },
    {
      "fullUrl": "urn:uuid:0a645a42-fe48-o008-0001-cdhr00hi0005",
      "resource": {
        "resourceType": "Observation",
        "id": "0a645a42-fe48-o008-0001-cdhr00hi0005",
        "meta": {
          "profile": [
            "http://build.fhir.org/ig/hl7au/au-fhir-childhealth/StructureDefinition/ncdhc-observation-abdomen-exam"
          ]
        },
        "code": {
          "coding": [
            {
              "code": "271911005",
              "system": "http://snomed.info/sct",
              "display": "Abdominal examination finding"
            }
          ]
        },
        "status": "final",
        "subject": {
          "reference": "Patient/a01bacd2-pt5c-11ea-b3de-0242ac130000",
          "display": "Baby of Lina Smith"
        },
        "effectiveDateTime": "2020-08-10T16:13:03+10:00",
        "interpretation": [
          {
            "coding": [
              {
                "code": "17621005",
                "system": "http://snomed.info/sct",
                "display": "Normal"
              }
            ]
          }
        ],
        "performer": [
          {
            "reference": "PractitionerRole/p01bacd2-pr5c-11ea-b3de-0242ac130003",
            "display": "Examiner"
          },
          {
            "reference": "Organization/o01bacd2-or5c-11ea-b3de-0242ac130002",
            "display": "Clinical Responsible Organisation"
          }
        ]
      }
    },
    {
      "fullUrl": "urn:uuid:0a645a42-fe48-o009-0001-cdhr00hi0005",
      "resource": {
        "resourceType": "Observation",
        "id": "0a645a42-fe48-o009-0001-cdhr00hi0005",
        "meta": {
          "profile": [
            "http://build.fhir.org/ig/hl7au/au-fhir-childhealth/StructureDefinition/ncdhc-observation-umbilicus-exam"
          ]
        },
        "code": {
          "coding": [
            {
              "code": "364594006",
              "system": "http://snomed.info/sct",
              "display": "Umbilical stump observable"
            }
          ]
        },
        "status": "final",
        "subject": {
          "reference": "Patient/a01bacd2-pt5c-11ea-b3de-0242ac130000",
          "display": "Baby of Lina Smith"
        },
        "effectiveDateTime": "2020-08-10T16:13:03+10:00",
        "interpretation": [
          {
            "coding": [
              {
                "code": "17621005",
                "system": "http://snomed.info/sct",
                "display": "Normal"
              }
            ]
          }
        ],
        "performer": [
          {
            "reference": "PractitionerRole/p01bacd2-pr5c-11ea-b3de-0242ac130003",
            "display": "Examiner"
          },
          {
            "reference": "Organization/o01bacd2-or5c-11ea-b3de-0242ac130002",
            "display": "Clinical Responsible Organisation"
          }
        ]
      }
    },
    {
      "fullUrl": "urn:uuid:0a645a42-fe48-o010-0001-cdhr00hi0005",
      "resource": {
        "resourceType": "Observation",
        "id": "0a645a42-fe48-o010-0001-cdhr00hi0005",
        "meta": {
          "profile": [
            "http://build.fhir.org/ig/hl7au/au-fhir-childhealth/StructureDefinition/ncdhc-observation-anus-exam"
          ]
        },
        "code": {
          "coding": [
            {
              "code": "364154000",
              "system": "http://snomed.info/sct",
              "display": "Appearance of anus"
            }
          ]
        },
        "status": "final",
        "subject": {
          "reference": "Patient/a01bacd2-pt5c-11ea-b3de-0242ac130000",
          "display": "Baby of Lina Smith"
        },
        "effectiveDateTime": "2020-08-10T16:13:03+10:00",
        "interpretation": [
          {
            "coding": [
              {
                "code": "17621005",
                "system": "http://snomed.info/sct",
                "display": "Normal"
              }
            ]
          }
        ],
        "performer": [
          {
            "reference": "PractitionerRole/p01bacd2-pr5c-11ea-b3de-0242ac130003",
            "display": "Examiner"
          },
          {
            "reference": "Organization/o01bacd2-or5c-11ea-b3de-0242ac130002",
            "display": "Clinical Responsible Organisation"
          }
        ]
      }
    },
    {
      "fullUrl": "urn:uuid:0a645a42-fe48-o011-0001-cdhr00hi0005",
      "resource": {
        "resourceType": "Observation",
        "id": "0a645a42-fe48-o011-0001-cdhr00hi0005",
        "meta": {
          "profile": [
            "http://build.fhir.org/ig/hl7au/au-fhir-childhealth/StructureDefinition/ncdhc-observation-genitalia-exam"
          ]
        },
        "code": {
          "coding": [
            {
              "code": "364204002",
              "system": "http://snomed.info/sct",
              "display": "Genital observables"
            }
          ]
        },
        "status": "final",
        "subject": {
          "reference": "Patient/a01bacd2-pt5c-11ea-b3de-0242ac130000",
          "display": "Baby of Lina Smith"
        },
        "effectiveDateTime": "2020-08-10T16:13:03+10:00",
        "interpretation": [
          {
            "coding": [
              {
                "code": "17621005",
                "system": "http://snomed.info/sct",
                "display": "Normal"
              }
            ]
          }
        ],
        "performer": [
          {
            "reference": "PractitionerRole/p01bacd2-pr5c-11ea-b3de-0242ac130003",
            "display": "Examiner"
          },
          {
            "reference": "Organization/o01bacd2-or5c-11ea-b3de-0242ac130002",
            "display": "Clinical Responsible Organisation"
          }
        ]
      }
    },
    {
      "fullUrl": "urn:uuid:0a645a42-fe48-o012-0001-cdhr00hi0005",
      "resource": {
        "resourceType": "Observation",
        "id": "0a645a42-fe48-o012-0001-cdhr00hi0005",
        "meta": {
          "profile": [
            "http://build.fhir.org/ig/hl7au/au-fhir-childhealth/StructureDefinition/ncdhc-observation-testes-exam"
          ]
        },
        "code": {
          "coding": [
            {
              "code": "249237009",
              "system": "http://snomed.info/sct",
              "display": "Position of testicle"
            }
          ]
        },
        "component": [
          {
            "code": {
              "coding": [
                {
                  "code": "15598003",
                  "system": "http://snomed.info/sct",
                  "display": "Structure of right testis"
                }
              ]
            },
            "interpretation": [
              {
                "coding": [
                  {
                    "code": "17621005",
                    "system": "http://snomed.info/sct",
                    "display": "Normal"
                  }
                ]
              }
            ]
          },
          {
            "code": {
              "coding": [
                {
                  "code": "63239009",
                  "system": "http://snomed.info/sct",
                  "display": "Structure of left testis"
                }
              ]
            },
            "interpretation": [
              {
                "coding": [
                  {
                    "code": "17621005",
                    "system": "http://snomed.info/sct",
                    "display": "Normal"
                  }
                ]
              }
            ]
          }
        ],
        "status": "final",
        "subject": {
          "reference": "Patient/a01bacd2-pt5c-11ea-b3de-0242ac130000",
          "display": "Baby of Lina Smith"
        },
        "effectiveDateTime": "2020-08-10T16:13:03+10:00",
        "performer": [
          {
            "reference": "PractitionerRole/p01bacd2-pr5c-11ea-b3de-0242ac130003",
            "display": "Examiner"
          },
          {
            "reference": "Organization/o01bacd2-or5c-11ea-b3de-0242ac130002",
            "display": "Clinical Responsible Organisation"
          }
        ]
      }
    },
    {
      "fullUrl": "urn:uuid:0a645a42-fe48-o013-0001-cdhr00hi0005",
      "resource": {
        "resourceType": "Observation",
        "id": "0a645a42-fe48-o013-0001-cdhr00hi0005",
        "meta": {
          "profile": [
            "http://build.fhir.org/ig/hl7au/au-fhir-childhealth/StructureDefinition/ncdhc-observation-musculo-skeletal-exam"
          ]
        },
        "code": {
          "coding": [
            {
              "code": "364561008",
              "system": "http://snomed.info/sct",
              "display": "Musculoskeletal observable"
            }
          ]
        },
        "status": "final",
        "subject": {
          "reference": "Patient/a01bacd2-pt5c-11ea-b3de-0242ac130000",
          "display": "Baby of Lina Smith"
        },
        "effectiveDateTime": "2020-08-10T16:13:03+10:00",
        "interpretation": [
          {
            "coding": [
              {
                "code": "17621005",
                "system": "http://snomed.info/sct",
                "display": "Normal"
              }
            ]
          }
        ],
        "performer": [
          {
            "reference": "PractitionerRole/p01bacd2-pr5c-11ea-b3de-0242ac130003",
            "display": "Examiner"
          },
          {
            "reference": "Organization/o01bacd2-or5c-11ea-b3de-0242ac130002",
            "display": "Clinical Responsible Organisation"
          }
        ]
      }
    },
    {
      "fullUrl": "urn:uuid:0a645a42-fe48-o014-0001-cdhr00hi0005",
      "resource": {
        "resourceType": "Observation",
        "id": "0a645a42-fe48-o014-0001-cdhr00hi0005",
        "meta": {
          "profile": [
            "http://build.fhir.org/ig/hl7au/au-fhir-childhealth/StructureDefinition/ncdhc-observation-limbs-exam"
          ]
        },
        "code": {
          "coding": [
            {
              "code": "364463008",
              "system": "http://snomed.info/sct",
              "display": "Limb structure observable"
            }
          ]
        },
        "status": "final",
        "subject": {
          "reference": "Patient/a01bacd2-pt5c-11ea-b3de-0242ac130000",
          "display": "Baby of Lina Smith"
        },
        "effectiveDateTime": "2020-08-10T16:13:03+10:00",
        "interpretation": [
          {
            "coding": [
              {
                "code": "17621005",
                "system": "http://snomed.info/sct",
                "display": "Normal"
              }
            ]
          }
        ],
        "performer": [
          {
            "reference": "PractitionerRole/p01bacd2-pr5c-11ea-b3de-0242ac130003",
            "display": "Examiner"
          },
          {
            "reference": "Organization/o01bacd2-or5c-11ea-b3de-0242ac130002",
            "display": "Clinical Responsible Organisation"
          }
        ]
      }
    },
    {
      "fullUrl": "urn:uuid:0a645a42-fe48-o015-0001-cdhr00hi0005",
      "resource": {
        "resourceType": "Observation",
        "id": "0a645a42-fe48-o015-0001-cdhr00hi0005",
        "meta": {
          "profile": [
            "http://build.fhir.org/ig/hl7au/au-fhir-childhealth/StructureDefinition/ncdhc-observation-spine-exam"
          ]
        },
        "code": {
          "coding": [
            {
              "code": "364415005",
              "system": "http://snomed.info/sct",
              "display": "Spinal region observable"
            }
          ]
        },
        "status": "final",
        "subject": {
          "reference": "Patient/a01bacd2-pt5c-11ea-b3de-0242ac130000",
          "display": "Baby of Lina Smith"
        },
        "effectiveDateTime": "2020-08-10T16:13:03+10:00",
        "interpretation": [
          {
            "coding": [
              {
                "code": "17621005",
                "system": "http://snomed.info/sct",
                "display": "Normal"
              }
            ]
          }
        ],
        "performer": [
          {
            "reference": "PractitionerRole/p01bacd2-pr5c-11ea-b3de-0242ac130003",
            "display": "Examiner"
          },
          {
            "reference": "Organization/o01bacd2-or5c-11ea-b3de-0242ac130002",
            "display": "Clinical Responsible Organisation"
          }
        ]
      }
    },
    {
      "fullUrl": "urn:uuid:0a645a42-fe48-o016-0001-cdhr00hi0005",
      "resource": {
        "resourceType": "Observation",
        "id": "0a645a42-fe48-o016-0001-cdhr00hi0005",
        "meta": {
          "profile": [
            "http://build.fhir.org/ig/hl7au/au-fhir-childhealth/StructureDefinition/ncdhc-observation-hips-exam"
          ]
        },
        "code": {
          "coding": [
            {
              "code": "250100005",
              "system": "http://snomed.info/sct",
              "display": "Hip joint stability"
            }
          ]
        },
        "status": "final",
        "subject": {
          "reference": "Patient/a01bacd2-pt5c-11ea-b3de-0242ac130000",
          "display": "Baby of Lina Smith"
        },
        "effectiveDateTime": "2020-08-10T16:13:03+10:00",
        "interpretation": [
          {
            "coding": [
              {
                "code": "17621005",
                "system": "http://snomed.info/sct",
                "display": "Normal"
              }
            ]
          }
        ],
        "performer": [
          {
            "reference": "PractitionerRole/p01bacd2-pr5c-11ea-b3de-0242ac130003",
            "display": "Examiner"
          },
          {
            "reference": "Organization/o01bacd2-or5c-11ea-b3de-0242ac130002",
            "display": "Clinical Responsible Organisation"
          }
        ]
      }
    },
    {
      "fullUrl": "urn:uuid:0a645a42-fe48-o018-0001-cdhr00hi0005",
      "resource": {
        "resourceType": "Observation",
        "id": "0a645a42-fe48-o018-0001-cdhr00hi0005",
        "meta": {
          "profile": [
            "http://build.fhir.org/ig/hl7au/au-fhir-childhealth/StructureDefinition/ncdhc-observation-neurological-exam"
          ]
        },
        "code": {
          "coding": [
            {
              "code": "363820009",
              "system": "http://snomed.info/sct",
              "display": "Neurological observable"
            }
          ]
        },
        "status": "final",
        "subject": {
          "reference": "Patient/a01bacd2-pt5c-11ea-b3de-0242ac130000",
          "display": "Baby of Lina Smith"
        },
        "effectiveDateTime": "2020-08-10T16:13:03+10:00",
        "interpretation": [
          {
            "coding": [
              {
                "code": "17621005",
                "system": "http://snomed.info/sct",
                "display": "Normal"
              }
            ]
          }
        ],
        "performer": [
          {
            "reference": "PractitionerRole/p01bacd2-pr5c-11ea-b3de-0242ac130003",
            "display": "Examiner"
          },
          {
            "reference": "Organization/o01bacd2-or5c-11ea-b3de-0242ac130002",
            "display": "Clinical Responsible Organisation"
          }
        ]
      }
    },
    {
      "fullUrl": "urn:uuid:0a645a42-fe48-o000-0001-cdhr00hi0005",
      "resource": {
        "resourceType": "Observation",
        "id": "0a645a42-fe48-o000-0001-cdhr00hi0005",
        "meta": {
          "profile": [
            "http://build.fhir.org/ig/hl7au/au-fhir-childhealth/StructureDefinition/ncdhc-observation-biological-sex-at-birth"
          ]
        },
        "code": {
          "coding": [
            {
              "system": "http://snomed.info/sct",
              "code": "1515311000168102",
              "display": "Biological sex at birth"
            },
            {
              "code": "76689-9",
              "system": "http://loinc.org",
              "display": "Sex assigned at birth"
            }
          ]
        },
        "status": "final",
        "subject": {
          "reference": "Patient/a01bacd2-pt5c-11ea-b3de-0242ac130001",
          "display": "Baby of Eve Bill"
        },
        "effectiveDateTime": "2020-08-21T16:13:03+10:00",
        "valueCodeableConcept": {
          "coding": [
            {
              "code": "248153007",
              "system": "http://snomed.info/sct",
              "display": "Male"
            }
          ]
        },
        "performer": [
          {
            "reference": "PractitionerRole/p01bacd2-pr5c-11ea-b3de-0242ac130003",
            "display": "Examiner"
          },
          {
            "reference": "Organization/o01bacd2-or5c-11ea-b3de-0242ac130002",
            "display": "Clinical Responsible Organisation"
          }
        ]
      }
    }
  ]
}
