{
  "resourceType": "Bundle",
  "id": "ncdhc-document-fh-rf-consumer-entered-example",
  "meta": {
    "profile": [
      "http://build.fhir.org/ig/hl7au/au-fhir-childhealth/StructureDefinition/ncdhc-bundle-fh-rf-consumer-entered-document"
    ]
  },
  "type": "document",
  "identifier": {
    "system": "urn:ietf:rfc:3986",
    "value": "urn:uuid:0c3151bd-1abf-4d67-e04g-cd1017a4cb23"
  },
  "timestamp": "2021-04-10T16:13:03+10:00",
  "entry": [
    {
      "fullUrl": "urn:uuid:0a645a42-fe48-c001-0001-cdhr00hi0023",
      "resource": {
        "resourceType": "Composition",
        "id": "0a645a42-fe48-c001-0001-cdhr00hi0023",
        "meta": {
          "profile": [
            "http://build.fhir.org/ig/hl7au/au-fhir-childhealth/StructureDefinition/ncdhc-composition-document-fh-rf-consumer"
          ]
        },
        "title": "Consumer Entered Family History and Risk Factors",
        "type": {
          "coding": [
            {
              "code": "FHRFCONSENTD",
              "system": "https://healthterminologies.gov.au/fhir/CodeSystem/ncdhc-hi-type-1",
			  "display": "Family History and Risk Factors Consumer Entered"
            }
          ]
        },
        "category": [
          {
            "coding": [
              {
                "code": "FHRF",
                "system": "https://healthterminologies.gov.au/fhir/CodeSystem/ncdhc-hi-category-1",
				"display": "Family History Consumer Entered"
              }
            ]
          }
        ],
        "section": [
          {
            "code": {
              "coding": [
                {
                  "code": "80943009",
                  "system": "http://snomed.info/sct",
                  "display": "Risk factor"
                }
              ]
            },
            "mode": "snapshot",
            "title": "Risk Factors",
            "entry": [
              {
                "reference": "Observation/0a645a42-fe48-o001-0001-cdhr00hi0023",
                "display": "Need Oxygen > 48hrs"
              },
              {
                "reference": "Observation/0a645a42-fe48-o001-0002-cdhr00hi0023",
                "display": "Birth Weight <1500gms"
              },
              {
                "reference": "Observation/0a645a42-fe48-o001-0003-cdhr00hi0023",
                "display": "Intensive Care >24hrs"
              }
            ]
          },
          {
            "code": {
              "coding": [
                {
                  "code": "102486008",
                  "system": "http://snomed.info/sct",
                  "display": "Familial risk factor"
                }
              ]
            },
            "title": "Familial Risk Factor",
            "entry": [
              {
                "reference": "QuestionnaireResponse/0a645a42-fe48-qr01-0001-cdhr00hi0023",
                "display": "Familial risk factor Questionnaire"
              }
            ]
          }
        ],
        "status": "final",
        "subject": {
          "reference": "Patient/a01bacd2-pt5c-11ea-b3de-0242ac130000",
          "display": "Baby of Lina Smith"
        },
        "encounter": {
          "reference": "Encounter/0a645a42-fe48-e001-0001-cdhr00hi0023",
          "display": "Downunder Hospital"
        },
        "date": "2021-04-10T16:13:03+10:00",
        "author": [
          {
            "reference": "RelatedPerson/a01bacd2-rpt5c-11ea-b3de-0242ac130002",
            "display": "Lina Smith"
          }
        ],
        "attester": [
          {
            "mode": "professional",
            "party": {
              "reference": "Organization/o01bacd2-or5c-11ea-b3de-0242ac130002",
              "display": "Downunder Hospital"
            }
          }
        ],
        "custodian": {
          "reference": "Organization/o01bacd2-or5c-11ea-b3de-0242ac130002",
          "display": "Downunder Hospital"
        }
      }
    },
    {
      "fullUrl": "urn:uuid:a01bacd2-pt5c-11ea-b3de-0242ac130000",
      "resource": {
        "resourceType": "Patient",
        "id": "a01bacd2-pt5c-11ea-b3de-0242ac130000",
        "meta": {
          "profile": [
            "http://build.fhir.org/ig/hl7au/au-fhir-childhealth/StructureDefinition/ncdhc-patient-child"
          ]
        },
        "identifier": [
          {
            "type": {
              "coding": [
                {
                  "system": "http://terminology.hl7.org/CodeSystem/v2-0203",
                  "code": "NI",
                  "display": "National unique individual identifier"
                }
              ],
              "text": "IHI"
            },
            "system": "http://ns.electronichealth.net.au/id/hi/ihi/1.0",
            "value": "8003608833357361"
          },
          {
            "type": {
              "coding": [
                {
                  "system": "http://terminology.hl7.org/CodeSystem/v2-0203",
                  "code": "MR",
                  "display": "Medical record number"
                }
              ],
              "text": "Medical Record Number"
            },
            "system": "http://ns.electronichealth.net.au/id/hpio-scoped/medicalrecord/1.0/8003620000000000",
            "value": "02134000",
            "assigner": {
              "display": "Blacktown Hospital"
            }
          }
        ],
        "extension": [
          {
            "url": "http://hl7.org/fhir/StructureDefinition/patient-birthPlace",
            "valueAddress": {
              "text": "Blacktown Hostpital"
            }
          }
        ],
        "contact": [
          {
            "relationship": [
              {
                "coding": [
                  {
                    "code": "MTH",
                    "system": "http://terminology.hl7.org/CodeSystem/v3-RoleCode"
                  }
                ]
              }
            ],
            "name": {
              "given": [
                "Lina"
              ],
              "family": "Smith"
            }
          }
        ],
        "active": true,
        "name": [
          {
            "use": "temp",
            "given": [
              "Baby of Lina"
            ],
            "family": "Smith"
          }
        ],
        "gender": "male",
        "birthDate": "2020-08-01"
      }
    },
    {
      "fullUrl": "urn:uuid:0a645a42-fe48-e001-0001-cdhr00hi0023",
      "resource": {
        "resourceType": "Encounter",
        "id": "0a645a42-fe48-e001-0001-cdhr00hi0023",
        "meta": {
          "profile": [
            "http://build.fhir.org/ig/hl7au/au-fhir-childhealth/StructureDefinition/ncdhc-encounter-cdhr"
          ]
        },
        "status": "finished",
        "class": {
          "code": "AMB",
          "system": "http://terminology.hl7.org/CodeSystem/v3-ActCode",
          "display": "ambulatory"
        },
        "subject": {
          "reference": "Patient/a01bacd2-pt5c-11ea-b3de-0242ac130000",
          "display": "Baby of Lina Smith"
        },
        "period": {
          "start": "2021-04-10T16:13:03+10:00",
          "end": "2021-04-10T16:13:03+10:00"
        },
        "contained": [
          {
            "resourceType": "Location",
            "id": "0a645a42-fe48-l001-0001-cdhr00hi0023",
            "name": "Downunder Hospital"
          }
        ],
        "location": [
          {
            "location": {
              "reference": "#0a645a42-fe48-l001-0001-cdhr00hi0023",
              "display": "Downunder Hospital"
            },
            "status": "completed"
          }
        ]
      }
    },
    {
      "fullUrl": "urn:uuid:p01bacd2-or5c-11ea-b3de-0242ac130002",
      "resource": {
        "resourceType": "Practitioner",
        "id": "p01bacd2-or5c-11ea-b3de-0242ac130002",
        "meta": {
          "profile": [
            "http://build.fhir.org/ig/hl7au/au-fhir-childhealth/StructureDefinition/ncdhc-practitioner"
          ]
        },
        "identifier": [
          {
            "type": {
              "coding": [
                {
                  "system": "http://terminology.hl7.org/CodeSystem/v2-0203",
                  "code": "NPI",
                  "display": "National provider identifier"
                }
              ],
              "text": "HPI-I"
            },
            "system": "http://ns.electronichealth.net.au/id/hi/hpii/1.0",
            "value": "8003619900015717"
          }
        ],
        "active": true,
        "name": [
          {
            "given": [
              "Helen"
            ],
            "family": "Mayo"
          }
        ]
      }
    },
    {
      "fullUrl": "urn:uuid:0a645a42-fe48-o001-0001-cdhr00hi0023",
      "resource": {
        "resourceType": "Observation",
        "id": "0a645a42-fe48-o001-0001-cdhr00hi0023",
        "meta": {
          "profile": [
            "http://build.fhir.org/ig/hl7au/au-fhir-childhealth/StructureDefinition/ncdhc-observation-risk-factors-consumer-entered"
          ]
        },
        "code": {
          "coding": [
            {
              "code": "1402861000168108",
              "system": "http://snomed.info/sct",
              "display": "H/O: neonate requiring oxygen for 48 hours or more"
            }
          ]
        },
        "status": "final",
        "subject": {
          "reference": "Patient/a01bacd2-pt5c-11ea-b3de-0242ac130000",
          "display": "Baby of Lina Smith"
        },
        "effectiveDateTime": "2021-04-10T16:13:03+10:00",
        "valueCodeableConcept": {
          "coding": [
            {
              "code": "373067005",
              "system": "http://snomed.info/sct",
              "display": "No"
            }
          ]
        },
        "performer": [
          {
            "reference": "RelatedPerson/a01bacd2-rpt5c-11ea-b3de-0242ac130002",
            "display": "Lina Smith"
          }
        ]
      }
    },
    {
      "fullUrl": "urn:uuid:0a645a42-fe48-o001-0002-cdhr00hi0023",
      "resource": {
        "resourceType": "Observation",
        "id": "0a645a42-fe48-o001-0002-cdhr00hi0023",
        "meta": {
          "profile": [
            "http://build.fhir.org/ig/hl7au/au-fhir-childhealth/StructureDefinition/ncdhc-observation-risk-factors-consumer-entered"
          ]
        },
        "code": {
          "coding": [
            {
              "code": "1376591000168102",
              "system": "http://snomed.info/sct",
              "display": "H/O: low birth weight status, less than 1500 g"
            }
          ]
        },
        "status": "final",
        "subject": {
          "reference": "Patient/a01bacd2-pt5c-11ea-b3de-0242ac130000",
          "display": "Baby of Lina Smith"
        },
        "effectiveDateTime": "2021-04-10T16:13:03+10:00",
        "valueCodeableConcept": {
          "coding": [
            {
              "code": "373067005",
              "system": "http://snomed.info/sct",
              "display": "No"
            }
          ]
        },
        "performer": [
          {
            "reference": "RelatedPerson/a01bacd2-rpt5c-11ea-b3de-0242ac130002",
            "display": "Lina Smith"
          }
        ]
      }
    },
    {
      "fullUrl": "urn:uuid:0a645a42-fe48-o001-0003-cdhr00hi0023",
      "resource": {
        "resourceType": "Observation",
        "id": "0a645a42-fe48-o001-0003-cdhr00hi0023",
        "meta": {
          "profile": [
            "http://build.fhir.org/ig/hl7au/au-fhir-childhealth/StructureDefinition/ncdhc-observation-risk-factors-consumer-entered"
          ]
        },
        "code": {
          "coding": [
            {
              "code": "1402871000168102",
              "system": "http://snomed.info/sct",
              "display": "H/O: neonate requiring intensive care for 24 hours or more"
            }
          ]
        },
        "status": "final",
        "subject": {
          "reference": "Patient/a01bacd2-pt5c-11ea-b3de-0242ac130000",
          "display": "Baby of Lina Smith"
        },
        "effectiveDateTime": "2021-04-10T16:13:03+10:00",
        "valueCodeableConcept": {
          "coding": [
            {
              "code": "373067005",
              "system": "http://snomed.info/sct",
              "display": "No"
            }
          ]
        },
        "performer": [
          {
            "reference": "RelatedPerson/a01bacd2-rpt5c-11ea-b3de-0242ac130002",
            "display": "Lina Smith"
          }
        ]
      }
    },
    {
      "fullUrl": "urn:uuid:0a645a42-fe48-qr01-0001-cdhr00hi0023",
      "resource": {
        "resourceType": "QuestionnaireResponse",
        "id": "0a645a42-fe48-qr01-0001-cdhr00hi0023",
        "meta": {
          "profile": [
            "http://build.fhir.org/ig/hl7au/au-fhir-childhealth/StructureDefinition/ncdhc-questionnaire-response-familial-childhood-risk-factor"
          ]
        },
        "questionnaire": "http://build.fhir.org/ig/hl7au/au-fhir-childhealth/Questionnaire/ncdhc-questionnaire-familial-childhood-risk-factor-cdhr00hi0023",
        "status": "completed",
        "subject": {
          "reference": "Patient/a01bacd2-pt5c-11ea-b3de-0242ac130000",
          "display": "Baby of Lina Smith"
        },
        "authored": "2021-04-10T16:13:03+10:00",
        "author": {
          "reference": "RelatedPerson/a01bacd2-rpt5c-11ea-b3de-0242ac130002",
          "display": "Lina Smith"
        },
        "item": [
          {
            "linkId": "1.0.0.0",
            "text": "Have any of your baby's close relatives been deaf or had a hearing problem from childhood?",
            "answer": [
              {
                "valueCoding": {
                  "code": "373067005",
                  "system": "http://snomed.info/sct",
                  "display": "No"
                }
              }
            ]
          },
          {
            "linkId": "2.0.0.0",
            "text": "Did anyone in the family have eye problems in childhood?",
            "answer": [
              {
                "valueCoding": {
                  "code": "373067005",
                  "system": "http://snomed.info/sct",
                  "display": "No"
                }
              }
            ]
          },
          {
            "linkId": "3.0.0.0",
            "text": "Is there family history of hip problems in childhood? Example - dysplasia of the hips?",
            "answer": [
              {
                "valueCoding": {
                  "code": "373067005",
                  "system": "http://snomed.info/sct",
                  "display": "No"
                }
              }
            ]
          }
        ]
      }
    }
  ]
}
