{
  "resourceType": "Bundle",
  "id": "ncdhc-document-nb-exam-example",
  "meta": {
    "profile": [
      "http://build.fhir.org/ig/hl7au/au-fhir-childhealth/StructureDefinition/ncdhc-bundle-document"
    ]
  },
  "type": "document",
  "identifier": {
    "system": "urn:ietf:rfc:3986",
    "value": "urn:uuid:0c3151bd-1cbf-4d64-b04d-cd9187a4c6e0"
  },
  "timestamp": "2020-08-26T16:13:03+10:00",
  "entry": [
    {
      "fullUrl": "urn:uuid:p01bacd2-bb5c-11ea-b3de-0242ac130000",
      "resource": {
        "resourceType": "Composition",
        "id": "p01bacd2-bb5c-11ea-b3de-0242ac130000",
        "meta": {
          "profile": [
            "http://build.fhir.org/ig/hl7au/au-fhir-childhealth/StructureDefinition/ncdhc-composition-document-nb-examination"
          ]
        },
        "title": "Newborn Examination",
        "section": [
          {
            "title": "Health conditions section",
            "code": {
              "coding": [
                {
                  "code": "60151004",
                  "system": "http://snomed.info/sct",
                  "display": "Neonatal screening"
                }
              ]
            },
            "entry": [
              {
                "reference": "Observation/p01bacd2-ob1c-01ea-b3de-0242ac130000",
                "display": "Child examination: fontanelle"
              },
              {
                "reference": "Observation/p02bacd2-ob1c-01ea-b3de-0242ac130000",
                "display": "Palate finding"
              },
              {
                "reference": "Observation/p03bacd2-ob1c-01ea-b3de-0242ac130000",
                "display": "Cardiovascular function"
              },
              {
                "reference": "Observation/p04bacd2-ob1c-01ea-b3de-0242ac130000",
                "display": "Respiratory rate"
              },
              {
                "reference": "Observation/p05bacd2-ob1c-01ea-b3de-0242ac130000",
                "display": "Appearance of anus"
              },
              {
                "reference": "Observation/p06bacd2-ob1c-01ea-b3de-0242ac130000",
                "display": "Genital observable"
              },
              {
                "reference": "Observation/p07bacd2-ob1c-01ea-b3de-0242ac130000",
                "display": "Musculoskeletal observable"
              },
              {
                "reference": "Observation/p08bacd2-ob1c-01ea-b3de-0242ac130000",
                "display": "Hip joint stability"
              },
              {
                "reference": "Observation/p09bacd2-ob1c-01ea-b3de-0242ac130000",
                "display": "Skin observable"
              },
              {
                "reference": "Observation/p10bacd2-ob1c-01ea-b3de-0242ac130000",
                "display": "Neurological observable"
              },
              {
                "reference": "Observation/p11bacd2-ob1c-01ea-b3de-0242ac130000",
                "display": "Femoral pulse"
              },
              {
                "reference": "Observation/p12bacd2-ob1c-01ea-b3de-0242ac130000",
                "display": "Ear observable"
              },
              {
                "reference": "Observation/p13bacd2-ob1c-01ea-b3de-0242ac130000",
                "display": "Visual function"
              },
              {
                "reference": "Observation/p14bacd2-ob1c-01ea-b3de-0242ac130000",
                "display": "Position of testicle"
              },
              {
                "reference": "Observation/p15bacd2-ob1c-01ea-b3de-0242ac130000",
                "display": "Abdominal examination finding"
              },
              {
                "reference": "Observation/p16bacd2-ob1c-01ea-b3de-0242ac130000",
                "display": "Umbilical stump observable"
              },
              {
                "reference": "Observation/p17bacd2-ob1c-01ea-b3de-0242ac130000",
                "display": "Spinal region observable"
              },
              {
                "reference": "Observation/p18bacd2-ob1c-01ea-b3de-0242ac130000",
                "display": "Limb structure observable"
              }
            ]
          }
        ],
        "status": "final",
        "type": {
          "coding": [
            {
              "code": "NEWBRNEXM",
              "system": "http://hl7.org.au/fhir/ch/v1/CodeSystem/ncdhc-hi-type-1",
              "display": "Newborn Examination"
            }
          ]
        },
        "subject": {
          "reference": "Patient/a01bacd2-pt5c-11ea-b3de-0242ac130001",
          "display": "Child of Eve Bill"
        },
        "encounter": {
          "reference": "Encounter/p01bacd2-ec5c-11ea-b3de-0242ac130004",
          "display": "Examination on 26th Aug 2020 at Downunder Hospital"
        },
        "date": "2020-08-26T16:13:03+10:00",
        "author": [
          {
            "reference": "PractitionerRole/p01bacd2-pr5c-11ea-b3de-0242ac130003",
            "display": "Helen Mayo"
          }
        ],
        "attester": [
          {
            "mode": "professional",
            "party": {
              "reference": "Organization/o01bacd2-or5c-11ea-b3de-0242ac130002",
              "display": "Downunder Hospital"
            }
          }
        ],
        "custodian": {
          "reference": "Organization/o01bacd2-or5c-11ea-b3de-0242ac130002",
          "display": "Downunder Hospital"
        }
      }
    },
    {
      "fullUrl": "urn:uuid:a01bacd2-pt5c-11ea-b3de-0242ac130001",
      "resource": {
        "resourceType": "Patient",
        "id": "a01bacd2-pt5c-11ea-b3de-0242ac130001",
        "meta": {
          "profile": [
            "http://build.fhir.org/ig/hl7au/au-fhir-childhealth/StructureDefinition/ncdhc-patient-child"
          ]
        },
        "identifier": [
          {
            "system": "http://ns.electronichealth.net.au/id/hi/ihi/1.0",
            "type": {
              "coding": [
                {
                  "system": "http://terminology.hl7.org/CodeSystem/v2-0203",
                  "code": "NI",
                  "display": "National unique individual identifier"
                }
              ],
              "text": "IHI"
            },
            "value": "8003608166690503"
          },
          {
            "type": {
              "coding": [
                {
                  "system": "http://terminology.hl7.org/CodeSystem/v2-0203",
                  "code": "MR",
                  "display": "Medical record number"
                }
              ],
              "text": "Medical Record Number"
            },
            "system": "http://ns.electronichealth.net.au/id/hpio-scoped/medicalrecord/1.0/8003620000000000",
            "value": "02134000",
            "assigner": {
              "display": "Blacktown Hospital"
            }
          }
        ],
        "contact": [
          {
            "relationship": [
              {
                "coding": [
                  {
                    "code": "MTH",
                    "system": "http://terminology.hl7.org/CodeSystem/v3-RoleCode"
                  }
                ]
              }
            ],
            "name": {
              "given": [
                "Eva"
              ],
              "family": "Bill"
            }
          }
        ],
        "active": true,
        "name": [
          {
            "use": "temp",
            "given": [
              "Baby Of Eve"
            ],
            "family": "Bill"
          }
        ],
        "gender": "female",
        "birthDate": "2020-01-01"
      }
    },
    {
      "fullUrl": "urn:uuid:o01bacd2-or5c-11ea-b3de-0242ac130002",
      "resource": {
        "resourceType": "Organization",
        "id": "o01bacd2-or5c-11ea-b3de-0242ac130002",
        "meta": {
          "profile": [
            "http://build.fhir.org/ig/hl7au/au-fhir-childhealth/StructureDefinition/ncdhc-organisation"
          ]
        },
        "identifier": [
          {
            "type": {
              "coding": [
                {
                  "system": "http://terminology.hl7.org.au/CodeSystem/v2-0203",
                  "code": "NOI",
                  "display": "National Organisation Identifier"
                }
              ],
              "text": "HPI-O"
            },
            "system": "http://ns.electronichealth.net.au/id/hi/hpio/1.0",
            "value": "8003621566684455"
          }
        ],
        "active": true,
        "name": "Downunder Hospital"
      }
    },
    {
      "fullUrl": "urn:uuid:p01bacd2-or5c-11ea-b3de-0242ac130002",
      "resource": {
        "resourceType": "Practitioner",
        "id": "p01bacd2-or5c-11ea-b3de-0242ac130002",
        "meta": {
          "profile": [
            "http://build.fhir.org/ig/hl7au/au-fhir-childhealth/StructureDefinition/ncdhc-practitioner"
          ]
        },
        "identifier": [
          {
            "type": {
              "coding": [
                {
                  "system": "http://terminology.hl7.org/CodeSystem/v2-0203",
                  "code": "NPI",
                  "display": "National provider identifier"
                }
              ],
              "text": "HPI-I"
            },
            "system": "http://ns.electronichealth.net.au/id/hi/hpii/1.0",
            "value": "8003619900015717"
          }
        ],
        "active": true,
        "name": [
          {
            "given": [
              "Helen"
            ],
            "family": "Mayo"
          }
        ]
      }
    },
    {
      "fullUrl": "urn:uuid:p01bacd2-pr5c-11ea-b3de-0242ac130003",
      "resource": {
        "resourceType": "PractitionerRole",
        "id": "p01bacd2-pr5c-11ea-b3de-0242ac130003",
        "meta": {
          "profile": [
            "http://build.fhir.org/ig/hl7au/au-fhir-childhealth/StructureDefinition/ncdhc-practitioner-role"
          ]
        },
        "identifier": [
          {
            "type": {
              "coding": [
                {
                  "system": "http://terminology.hl7.org.au/CodeSystem/v2-0203",
                  "code": "NPIO",
                  "display": "National Provider at Organisation Identifier"
                }
              ],
              "text": "NPIO"
            },
            "system": "http://hl7.org.au/id/npio",
            "value": "8003619900015717@8003621566684455"
          }
        ],
        "active": true,
        "practitioner": {
          "reference": "Practitioner/p01bacd2-or5c-11ea-b3de-0242ac130002"
        },
        "organization": {
          "reference": "Organization/o01bacd2-or5c-11ea-b3de-0242ac130002"
        },
        "specialty": [
          {
            "coding": [
              {
                "code": "408443003",
                "system": "http://snomed.info/sct",
                "display": "General medical practice"
              }
            ]
          }
        ]
      }
    },
    {
      "fullUrl": "urn:uuid:p01bacd2-ec5c-11ea-b3de-0242ac130004",
      "resource": {
        "resourceType": "Encounter",
        "id": "p01bacd2-ec5c-11ea-b3de-0242ac130004",
        "meta": {
          "profile": [
            "http://build.fhir.org/ig/hl7au/au-fhir-childhealth/StructureDefinition/ncdhc-encounter-cdhr"
          ]
        },
        "status": "finished",
        "class": {
          "code": "AMB",
          "system": "http://terminology.hl7.org/CodeSystem/v3-ActCode",
          "display": "ambulatory"
        },
        "subject": {
          "reference": "Patient/a01bacd2-pt5c-11ea-b3de-0242ac130001",
          "display": "Child of Eve Bill"
        },
        "period": {
          "start": "2020-08-26T16:13:03+10:00",
          "end": "2020-08-26T16:13:03+10:00"
        },
        "contained": [
          {
            "resourceType": "Location",
            "id": "l01bacd2-ec5c-11ea-b3de-0242ac130004",
            "name": "Downunder Hospital"
          }
        ],
        "location": [
          {
            "location": {
              "reference": "#l01bacd2-ec5c-11ea-b3de-0242ac130004",
              "display": "Downunder Hospital"
            },
            "status": "completed"
          }
        ]
      }
    },
    {
      "fullUrl": "urn:uuid:p01bacd2-ob1c-01ea-b3de-0242ac130000",
      "resource": {
        "resourceType": "Observation",
        "id": "p01bacd2-ob1c-01ea-b3de-0242ac130000",
        "meta": {
          "profile": [
            "http://build.fhir.org/ig/hl7au/au-fhir-childhealth/StructureDefinition/ncdhc-observation-head-fontanelles-exam"
          ]
        },
        "code": {
          "coding": [
            {
              "code": "170190000",
              "system": "http://snomed.info/sct",
              "display": "Child examination: fontanelle"
            }
          ]
        },
        "status": "final",
        "subject": {
          "reference": "Patient/a01bacd2-pt5c-11ea-b3de-0242ac130001",
          "display": "Baby of Eve Bill"
        },
        "effectiveDateTime": "2020-08-12T16:13:03+10:00",
        "interpretation": [
          {
            "coding": [
              {
                "code": "17621005",
                "system": "http://snomed.info/sct",
                "display": "Normal"
              }
            ]
          }
        ],
        "performer": [
          {
            "reference": "PractitionerRole/p01bacd2-pr5c-11ea-b3de-0242ac130003",
            "display": "Examiner"
          },
          {
            "reference": "Organization/o01bacd2-or5c-11ea-b3de-0242ac130002",
            "display": "Clinical Responsible Organisation"
          }
        ]
      }
    },
    {
      "fullUrl": "urn:uuid:p02bacd2-ob1c-01ea-b3de-0242ac130000",
      "resource": {
        "resourceType": "Observation",
        "id": "p02bacd2-ob1c-01ea-b3de-0242ac130000",
        "meta": {
          "profile": [
            "http://build.fhir.org/ig/hl7au/au-fhir-childhealth/StructureDefinition/ncdhc-observation-mouth-palate-exam"
          ]
        },
        "code": {
          "coding": [
            {
              "code": "249390006",
              "system": "http://snomed.info/sct",
              "display": "Palate finding"
            }
          ]
        },
        "status": "final",
        "subject": {
          "reference": "Patient/a01bacd2-pt5c-11ea-b3de-0242ac130001",
          "display": "Baby of Eve Bill"
        },
        "effectiveDateTime": "2020-08-12T16:13:03+10:00",
        "interpretation": [
          {
            "coding": [
              {
                "code": "17621005",
                "system": "http://snomed.info/sct",
                "display": "Normal"
              }
            ]
          }
        ],
        "performer": [
          {
            "reference": "PractitionerRole/p01bacd2-pr5c-11ea-b3de-0242ac130003",
            "display": "Examiner"
          },
          {
            "reference": "Organization/o01bacd2-or5c-11ea-b3de-0242ac130002",
            "display": "Clinical Responsible Organisation"
          }
        ]
      }
    },
    {
      "fullUrl": "urn:uuid:p03bacd2-ob1c-01ea-b3de-0242ac130000",
      "resource": {
        "resourceType": "Observation",
        "id": "p03bacd2-ob1c-01ea-b3de-0242ac130000",
        "meta": {
          "profile": [
            "http://build.fhir.org/ig/hl7au/au-fhir-childhealth/StructureDefinition/ncdhc-observation-cardiovascular-heart-exam"
          ]
        },
        "code": {
          "coding": [
            {
              "code": "70337006",
              "system": "http://snomed.info/sct",
              "display": "Cardiovascular function"
            }
          ]
        },
        "status": "final",
        "subject": {
          "reference": "Patient/a01bacd2-pt5c-11ea-b3de-0242ac130001",
          "display": "Baby of Eve Bill"
        },
        "effectiveDateTime": "2020-08-12T16:13:03+10:00",
        "interpretation": [
          {
            "coding": [
              {
                "code": "17621005",
                "system": "http://snomed.info/sct",
                "display": "Normal"
              }
            ]
          }
        ],
        "performer": [
          {
            "reference": "PractitionerRole/p01bacd2-pr5c-11ea-b3de-0242ac130003",
            "display": "Examiner"
          },
          {
            "reference": "Organization/o01bacd2-or5c-11ea-b3de-0242ac130002",
            "display": "Clinical Responsible Organisation"
          }
        ]
      }
    },
    {
      "fullUrl": "urn:uuid:p04bacd2-ob1c-01ea-b3de-0242ac130000",
      "resource": {
        "resourceType": "Observation",
        "id": "p04bacd2-ob1c-01ea-b3de-0242ac130000",
        "meta": {
          "profile": [
            "http://build.fhir.org/ig/hl7au/au-fhir-childhealth/StructureDefinition/ncdhc-observation-respiratory-rate-exam"
          ]
        },
        "code": {
          "coding": [
            {
              "code": "86290005",
              "system": "http://snomed.info/sct",
              "display": "Respiratory rate"
            }
          ]
        },
        "status": "final",
        "subject": {
          "reference": "Patient/a01bacd2-pt5c-11ea-b3de-0242ac130001",
          "display": "Baby of Eve Bill"
        },
        "effectiveDateTime": "2020-08-12T16:13:03+10:00",
        "interpretation": [
          {
            "coding": [
              {
                "code": "17621005",
                "system": "http://snomed.info/sct",
                "display": "Normal"
              }
            ]
          }
        ],
        "performer": [
          {
            "reference": "PractitionerRole/p01bacd2-pr5c-11ea-b3de-0242ac130003",
            "display": "Examiner"
          },
          {
            "reference": "Organization/o01bacd2-or5c-11ea-b3de-0242ac130002",
            "display": "Clinical Responsible Organisation"
          }
        ]
      }
    },
    {
      "fullUrl": "urn:uuid:p05bacd2-ob1c-01ea-b3de-0242ac130000",
      "resource": {
        "resourceType": "Observation",
        "id": "p05bacd2-ob1c-01ea-b3de-0242ac130000",
        "meta": {
          "profile": [
            "http://build.fhir.org/ig/hl7au/au-fhir-childhealth/StructureDefinition/ncdhc-observation-anus-exam"
          ]
        },
        "code": {
          "coding": [
            {
              "code": "364154000",
              "system": "http://snomed.info/sct",
              "display": "Appearance of anus"
            }
          ]
        },
        "status": "final",
        "subject": {
          "reference": "Patient/a01bacd2-pt5c-11ea-b3de-0242ac130001",
          "display": "Baby of Eve Bill"
        },
        "effectiveDateTime": "2020-08-12T16:13:03+10:00",
        "interpretation": [
          {
            "coding": [
              {
                "code": "17621005",
                "system": "http://snomed.info/sct",
                "display": "Normal"
              }
            ]
          }
        ],
        "performer": [
          {
            "reference": "PractitionerRole/p01bacd2-pr5c-11ea-b3de-0242ac130003",
            "display": "Examiner"
          },
          {
            "reference": "Organization/o01bacd2-or5c-11ea-b3de-0242ac130002",
            "display": "Clinical Responsible Organisation"
          }
        ]
      }
    },
    {
      "fullUrl": "urn:uuid:p06bacd2-ob1c-01ea-b3de-0242ac130000",
      "resource": {
        "resourceType": "Observation",
        "id": "p06bacd2-ob1c-01ea-b3de-0242ac130000",
        "meta": {
          "profile": [
            "http://build.fhir.org/ig/hl7au/au-fhir-childhealth/StructureDefinition/ncdhc-observation-genitalia-exam"
          ]
        },
        "code": {
          "coding": [
            {
              "code": "364204002",
              "system": "http://snomed.info/sct",
              "display": "Genital observable"
            }
          ]
        },
        "status": "final",
        "subject": {
          "reference": "Patient/a01bacd2-pt5c-11ea-b3de-0242ac130001",
          "display": "Baby of Eve Bill"
        },
        "effectiveDateTime": "2020-08-12T16:13:03+10:00",
        "interpretation": [
          {
            "coding": [
              {
                "code": "17621005",
                "system": "http://snomed.info/sct",
                "display": "Normal"
              }
            ]
          }
        ],
        "performer": [
          {
            "reference": "PractitionerRole/p01bacd2-pr5c-11ea-b3de-0242ac130003",
            "display": "Examiner"
          },
          {
            "reference": "Organization/o01bacd2-or5c-11ea-b3de-0242ac130002",
            "display": "Clinical Responsible Organisation"
          }
        ]
      }
    },
    {
      "fullUrl": "urn:uuid:p07bacd2-ob1c-01ea-b3de-0242ac130000",
      "resource": {
        "resourceType": "Observation",
        "id": "p07bacd2-ob1c-01ea-b3de-0242ac130000",
        "meta": {
          "profile": [
            "http://build.fhir.org/ig/hl7au/au-fhir-childhealth/StructureDefinition/ncdhc-observation-musculo-skeletal-exam"
          ]
        },
        "code": {
          "coding": [
            {
              "code": "364561008",
              "system": "http://snomed.info/sct",
              "display": "Musculoskeletal observable"
            }
          ]
        },
        "status": "final",
        "subject": {
          "reference": "Patient/a01bacd2-pt5c-11ea-b3de-0242ac130001",
          "display": "Baby of Eve Bill"
        },
        "effectiveDateTime": "2020-08-12T16:13:03+10:00",
        "interpretation": [
          {
            "coding": [
              {
                "code": "17621005",
                "system": "http://snomed.info/sct",
                "display": "Normal"
              }
            ]
          }
        ],
        "performer": [
          {
            "reference": "PractitionerRole/p01bacd2-pr5c-11ea-b3de-0242ac130003",
            "display": "Examiner"
          },
          {
            "reference": "Organization/o01bacd2-or5c-11ea-b3de-0242ac130002",
            "display": "Clinical Responsible Organisation"
          }
        ]
      }
    },
    {
      "fullUrl": "urn:uuid:p08bacd2-ob1c-01ea-b3de-0242ac130000",
      "resource": {
        "resourceType": "Observation",
        "id": "p08bacd2-ob1c-01ea-b3de-0242ac130000",
        "meta": {
          "profile": [
            "http://build.fhir.org/ig/hl7au/au-fhir-childhealth/StructureDefinition/ncdhc-observation-hips-exam"
          ]
        },
        "code": {
          "coding": [
            {
              "code": "250100005",
              "system": "http://snomed.info/sct",
              "display": "Hip joint stability"
            }
          ]
        },
        "status": "final",
        "subject": {
          "reference": "Patient/a01bacd2-pt5c-11ea-b3de-0242ac130001",
          "display": "Baby of Eve Bill"
        },
        "effectiveDateTime": "2020-08-12T16:13:03+10:00",
        "interpretation": [
          {
            "coding": [
              {
                "code": "17621005",
                "system": "http://snomed.info/sct",
                "display": "Normal"
              }
            ]
          }
        ],
        "performer": [
          {
            "reference": "PractitionerRole/p01bacd2-pr5c-11ea-b3de-0242ac130003",
            "display": "Examiner"
          },
          {
            "reference": "Organization/o01bacd2-or5c-11ea-b3de-0242ac130002",
            "display": "Clinical Responsible Organisation"
          }
        ]
      }
    },
    {
      "fullUrl": "urn:uuid:p09bacd2-ob1c-01ea-b3de-0242ac130000",
      "resource": {
        "resourceType": "Observation",
        "id": "p09bacd2-ob1c-01ea-b3de-0242ac130000",
        "meta": {
          "profile": [
            "http://build.fhir.org/ig/hl7au/au-fhir-childhealth/StructureDefinition/ncdhc-observation-skin-exam"
          ]
        },
        "code": {
          "coding": [
            {
              "code": "364528001",
              "system": "http://snomed.info/sct",
              "display": "Skin observable"
            }
          ]
        },
        "status": "final",
        "subject": {
          "reference": "Patient/a01bacd2-pt5c-11ea-b3de-0242ac130001",
          "display": "Baby of Eve Bill"
        },
        "effectiveDateTime": "2020-08-12T16:13:03+10:00",
        "interpretation": [
          {
            "coding": [
              {
                "code": "17621005",
                "system": "http://snomed.info/sct",
                "display": "Normal"
              }
            ]
          }
        ],
        "performer": [
          {
            "reference": "PractitionerRole/p01bacd2-pr5c-11ea-b3de-0242ac130003",
            "display": "Examiner"
          },
          {
            "reference": "Organization/o01bacd2-or5c-11ea-b3de-0242ac130002",
            "display": "Clinical Responsible Organisation"
          }
        ]
      }
    },
    {
      "fullUrl": "urn:uuid:p10bacd2-ob1c-01ea-b3de-0242ac130000",
      "resource": {
        "resourceType": "Observation",
        "id": "p10bacd2-ob1c-01ea-b3de-0242ac130000",
        "meta": {
          "profile": [
            "http://build.fhir.org/ig/hl7au/au-fhir-childhealth/StructureDefinition/ncdhc-observation-reflexes-neurological-exam"
          ]
        },
        "code": {
          "coding": [
            {
              "code": "363820009",
              "system": "http://snomed.info/sct",
              "display": "Neurological observable"
            }
          ]
        },
        "status": "final",
        "subject": {
          "reference": "Patient/a01bacd2-pt5c-11ea-b3de-0242ac130001",
          "display": "Baby of Eve Bill"
        },
        "effectiveDateTime": "2020-08-12T16:13:03+10:00",
        "interpretation": [
          {
            "coding": [
              {
                "code": "17621005",
                "system": "http://snomed.info/sct",
                "display": "Normal"
              }
            ]
          }
        ],
        "performer": [
          {
            "reference": "PractitionerRole/p01bacd2-pr5c-11ea-b3de-0242ac130003",
            "display": "Examiner"
          },
          {
            "reference": "Organization/o01bacd2-or5c-11ea-b3de-0242ac130002",
            "display": "Clinical Responsible Organisation"
          }
        ]
      }
    },
    {
      "fullUrl": "urn:uuid:p11bacd2-ob1c-01ea-b3de-0242ac130000",
      "resource": {
        "resourceType": "Observation",
        "id": "p11bacd2-ob1c-01ea-b3de-0242ac130000",
        "meta": {
          "profile": [
            "http://build.fhir.org/ig/hl7au/au-fhir-childhealth/StructureDefinition/ncdhc-observation-femoral-pulses-exam"
          ]
        },
        "code": {
          "coding": [
            {
              "code": "67316000",
              "system": "http://snomed.info/sct",
              "display": "Femoral pulse"
            }
          ]
        },
        "component": [
          {
            "code": {
              "coding": [
                {
                  "code": "69833005",
                  "system": "http://snomed.info/sct",
                  "display": "Structure of right femoral artery"
                }
              ]
            },
            "interpretation": [
              {
                "coding": [
                  {
                    "code": "183924009",
                    "system": "http://snomed.info/sct",
                    "display": "Referral needed"
                  }
                ]
              }
            ]
          },
          {
            "code": {
              "coding": [
                {
                  "code": "113270003",
                  "system": "http://snomed.info/sct",
                  "display": "Structure of left femoral artery"
                }
              ]
            },
            "interpretation": [
              {
                "coding": [
                  {
                    "code": "183924009",
                    "system": "http://snomed.info/sct",
                    "display": "Referral needed"
                  }
                ]
              }
            ]
          }
        ],
        "status": "final",
        "subject": {
          "reference": "Patient/a01bacd2-pt5c-11ea-b3de-0242ac130001",
          "display": "Baby of Eve Bill"
        },
        "effectiveDateTime": "2020-08-21T16:13:03+10:00",
        "performer": [
          {
            "reference": "PractitionerRole/p01bacd2-pr5c-11ea-b3de-0242ac130003",
            "display": "Examiner"
          },
          {
            "reference": "Organization/o01bacd2-or5c-11ea-b3de-0242ac130002",
            "display": "Clinical Responsible Organisation"
          }
        ]
      }
    },
    {
      "fullUrl": "urn:uuid:p12bacd2-ob1c-01ea-b3de-0242ac130000",
      "resource": {
        "resourceType": "Observation",
        "id": "p12bacd2-ob1c-01ea-b3de-0242ac130000",
        "meta": {
          "profile": [
            "http://build.fhir.org/ig/hl7au/au-fhir-childhealth/StructureDefinition/ncdhc-observation-ears-exam"
          ]
        },
        "code": {
          "coding": [
            {
              "code": "363991003",
              "system": "http://snomed.info/sct",
              "display": "Ear observable"
            }
          ]
        },
        "component": [
          {
            "code": {
              "coding": [
                {
                  "code": "25577004",
                  "system": "http://snomed.info/sct",
                  "display": "Right ear structure"
                }
              ]
            },
            "interpretation": [
              {
                "coding": [
                  {
                    "code": "183924009",
                    "system": "http://snomed.info/sct",
                    "display": "Referral needed"
                  }
                ]
              }
            ]
          },
          {
            "code": {
              "coding": [
                {
                  "code": "89644007",
                  "system": "http://snomed.info/sct",
                  "display": "Left ear structure"
                }
              ]
            },
            "interpretation": [
              {
                "coding": [
                  {
                    "code": "183924009",
                    "system": "http://snomed.info/sct",
                    "display": "Referral needed"
                  }
                ]
              }
            ]
          }
        ],
        "status": "final",
        "subject": {
          "reference": "Patient/a01bacd2-pt5c-11ea-b3de-0242ac130001",
          "display": "Baby of Eve Bill"
        },
        "effectiveDateTime": "2020-08-21T16:13:03+10:00",
        "performer": [
          {
            "reference": "PractitionerRole/p01bacd2-pr5c-11ea-b3de-0242ac130003",
            "display": "Examiner"
          },
          {
            "reference": "Organization/o01bacd2-or5c-11ea-b3de-0242ac130002",
            "display": "Clinical Responsible Organisation"
          }
        ]
      }
    },
    {
      "fullUrl": "urn:uuid:p13bacd2-ob1c-01ea-b3de-0242ac130000",
      "resource": {
        "resourceType": "Observation",
        "id": "p13bacd2-ob1c-01ea-b3de-0242ac130000",
        "meta": {
          "profile": [
            "http://build.fhir.org/ig/hl7au/au-fhir-childhealth/StructureDefinition/ncdhc-observation-eyes-exam"
          ]
        },
        "code": {
          "coding": [
            {
              "code": "363926002",
              "system": "http://snomed.info/sct",
              "display": "Eye/vision observable"
            }
          ]
        },
        "component": [
          {
            "code": {
              "coding": [
                {
                  "code": "18944008",
                  "system": "http://snomed.info/sct",
                  "display": "Right eye structure"
                }
              ]
            },
            "interpretation": [
              {
                "coding": [
                  {
                    "code": "183924009",
                    "system": "http://snomed.info/sct",
                    "display": "Referral needed"
                  }
                ]
              }
            ]
          },
          {
            "code": {
              "coding": [
                {
                  "code": "8966001",
                  "system": "http://snomed.info/sct",
                  "display": "Left eye structure"
                }
              ]
            },
            "interpretation": [
              {
                "coding": [
                  {
                    "code": "183924009",
                    "system": "http://snomed.info/sct",
                    "display": "Referral needed"
                  }
                ]
              }
            ]
          }
        ],
        "status": "final",
        "subject": {
          "reference": "Patient/a01bacd2-pt5c-11ea-b3de-0242ac130001",
          "display": "Baby of Eve Bill"
        },
        "effectiveDateTime": "2020-08-21T16:13:03+10:00",
        "performer": [
          {
            "reference": "PractitionerRole/p01bacd2-pr5c-11ea-b3de-0242ac130003",
            "display": "Examiner"
          },
          {
            "reference": "Organization/o01bacd2-or5c-11ea-b3de-0242ac130002",
            "display": "Clinical Responsible Organisation"
          }
        ]
      }
    },
    {
      "fullUrl": "urn:uuid:p14bacd2-ob1c-01ea-b3de-0242ac130000",
      "resource": {
        "resourceType": "Observation",
        "id": "p14bacd2-ob1c-01ea-b3de-0242ac130000",
        "meta": {
          "profile": [
            "http://build.fhir.org/ig/hl7au/au-fhir-childhealth/StructureDefinition/ncdhc-observation-testes-exam"
          ]
        },
        "code": {
          "coding": [
            {
              "code": "249237009",
              "system": "http://snomed.info/sct",
              "display": "Position of testicle"
            }
          ]
        },
        "status": "final",
        "subject": {
          "reference": "Patient/a01bacd2-pt5c-11ea-b3de-0242ac130001",
          "display": "Baby of Eve Bill"
        },
        "effectiveDateTime": "2020-08-12T16:13:03+10:00",
        "dataAbsentReason": {
          "coding": [
            {
              "code": "not-applicable",
              "system": "http://terminology.hl7.org/CodeSystem/data-absent-reason",
              "display": "Not Applicable"
            }
          ]
        },
        "performer": [
          {
            "reference": "PractitionerRole/p01bacd2-pr5c-11ea-b3de-0242ac130003",
            "display": "Examiner"
          },
          {
            "reference": "Organization/o01bacd2-or5c-11ea-b3de-0242ac130002",
            "display": "Clinical Responsible Organisation"
          }
        ]
      }
    },
    {
      "fullUrl": "urn:uuid:p15bacd2-ob1c-01ea-b3de-0242ac130000",
      "resource": {
        "resourceType": "Observation",
        "id": "p15bacd2-ob1c-01ea-b3de-0242ac130000",
        "meta": {
          "profile": [
            "http://build.fhir.org/ig/hl7au/au-fhir-childhealth/StructureDefinition/ncdhc-observation-abdomen-exam"
          ]
        },
        "code": {
          "coding": [
            {
              "code": "271911005",
              "system": "http://snomed.info/sct",
              "display": "Abdominal examination finding"
            }
          ]
        },
        "status": "final",
        "subject": {
          "reference": "Patient/a01bacd2-pt5c-11ea-b3de-0242ac130001",
          "display": "Baby of Eve Bill"
        },
        "effectiveDateTime": "2020-08-12T16:13:03+10:00",
        "interpretation": [
          {
            "coding": [
              {
                "code": "17621005",
                "system": "http://snomed.info/sct",
                "display": "Normal"
              }
            ]
          }
        ],
        "performer": [
          {
            "reference": "PractitionerRole/p01bacd2-pr5c-11ea-b3de-0242ac130003",
            "display": "Examiner"
          },
          {
            "reference": "Organization/o01bacd2-or5c-11ea-b3de-0242ac130002",
            "display": "Clinical Responsible Organisation"
          }
        ]
      }
    },
    {
      "fullUrl": "urn:uuid:p16bacd2-ob1c-01ea-b3de-0242ac130000",
      "resource": {
        "resourceType": "Observation",
        "id": "p16bacd2-ob1c-01ea-b3de-0242ac130000",
        "meta": {
          "profile": [
            "http://build.fhir.org/ig/hl7au/au-fhir-childhealth/StructureDefinition/ncdhc-observation-umbilicus-exam"
          ]
        },
        "code": {
          "coding": [
            {
              "code": "364594006",
              "system": "http://snomed.info/sct",
              "display": "Umbilical stump observable"
            }
          ]
        },
        "status": "final",
        "subject": {
          "reference": "Patient/a01bacd2-pt5c-11ea-b3de-0242ac130001",
          "display": "Baby of Eve Bill"
        },
        "effectiveDateTime": "2020-08-12T16:13:03+10:00",
        "interpretation": [
          {
            "coding": [
              {
                "code": "17621005",
                "system": "http://snomed.info/sct",
                "display": "Normal"
              }
            ]
          }
        ],
        "performer": [
          {
            "reference": "PractitionerRole/p01bacd2-pr5c-11ea-b3de-0242ac130003",
            "display": "Examiner"
          },
          {
            "reference": "Organization/o01bacd2-or5c-11ea-b3de-0242ac130002",
            "display": "Clinical Responsible Organisation"
          }
        ]
      }
    },
    {
      "fullUrl": "urn:uuid:p17bacd2-ob1c-01ea-b3de-0242ac130000",
      "resource": {
        "resourceType": "Observation",
        "id": "p17bacd2-ob1c-01ea-b3de-0242ac130000",
        "meta": {
          "profile": [
            "http://build.fhir.org/ig/hl7au/au-fhir-childhealth/StructureDefinition/ncdhc-observation-spine-exam"
          ]
        },
        "code": {
          "coding": [
            {
              "code": "364415005",
              "system": "http://snomed.info/sct",
              "display": "Spinal region observable"
            }
          ]
        },
        "status": "final",
        "subject": {
          "reference": "Patient/a01bacd2-pt5c-11ea-b3de-0242ac130001",
          "display": "Baby of Eve Bill"
        },
        "effectiveDateTime": "2020-08-12T16:13:03+10:00",
        "interpretation": [
          {
            "coding": [
              {
                "code": "17621005",
                "system": "http://snomed.info/sct",
                "display": "Normal"
              }
            ]
          }
        ],
        "performer": [
          {
            "reference": "PractitionerRole/p01bacd2-pr5c-11ea-b3de-0242ac130003",
            "display": "Examiner"
          },
          {
            "reference": "Organization/o01bacd2-or5c-11ea-b3de-0242ac130002",
            "display": "Clinical Responsible Organisation"
          }
        ]
      }
    },
    {
      "fullUrl": "urn:uuid:p18bacd2-ob1c-01ea-b3de-0242ac130000",
      "resource": {
        "resourceType": "Observation",
        "id": "p18bacd2-ob1c-01ea-b3de-0242ac130000",
        "meta": {
          "profile": [
            "http://build.fhir.org/ig/hl7au/au-fhir-childhealth/StructureDefinition/ncdhc-observation-limbs-exam"
          ]
        },
        "code": {
          "coding": [
            {
              "code": "364463008",
              "system": "http://snomed.info/sct",
              "display": "Limb structure observable"
            }
          ]
        },
        "status": "final",
        "subject": {
          "reference": "Patient/a01bacd2-pt5c-11ea-b3de-0242ac130001",
          "display": "Baby of Eve Bill"
        },
        "effectiveDateTime": "2020-08-12T16:13:03+10:00",
        "interpretation": [
          {
            "coding": [
              {
                "code": "17621005",
                "system": "http://snomed.info/sct",
                "display": "Normal"
              }
            ]
          }
        ],
        "performer": [
          {
            "reference": "PractitionerRole/p01bacd2-pr5c-11ea-b3de-0242ac130003",
            "display": "Examiner"
          },
          {
            "reference": "Organization/o01bacd2-or5c-11ea-b3de-0242ac130002",
            "display": "Clinical Responsible Organisation"
          }
        ]
      }
    }
  ]
}
