{
  "resourceType": "Bundle",
  "id": "ncdhc-document-pregnancy-issues-and-plans-example",
  "meta": {
    "profile": [
      "http://build.fhir.org/ig/hl7au/au-fhir-childhealth/StructureDefinition/ncdhc-bundle-preg-issues-plan-document"
    ]
  },
  "type": "document",
  "identifier": {
    "system": "urn:ietf:rfc:3986",
    "value": "urn:uuid:0c3151bd-1abf-4d64-p04d-cd1017a4c6e0"
  },
  "timestamp": "2018-11-27T16:13:03+10:00",
  "entry": [
    {
      "fullUrl": "urn:uuid:0a645a42-fe48-c001-0001-dphr00hi115a",
      "resource": {
        "resourceType": "Composition",
        "id": "0a645a42-fe48-c001-0001-dphr00hi115a",
        "meta": {
          "profile": [
            "http://build.fhir.org/ig/hl7au/au-fhir-childhealth/StructureDefinition/ncdhc-composition-document-preg-issues-plans"
          ]
        },
        "title": "Complication Of Pregnancy and Plan",
        "type": {
          "coding": [
            {
              "code": "PREGISSPLNS",
              "system": "http://hl7.org.au/fhir/ch/v1/CodeSystem/ncdhc-hi-type-1"
            }
          ]
        },
        "category": [
          {
            "coding": [
              {
                "code": "ISSPLNS",
                "system": "http://hl7.org.au/fhir/ch/v1/CodeSystem/ncdhc-document-class-1"
              }
            ]
          }
        ],
        "section": [
          {
            "code": {
              "coding": [
                {
                  "code": "198609003",
                  "system": "http://snomed.info/sct",
                  "display": "Complication of pregnancy, childbirth and/or the puerperium"
                }
              ]
            },
            "mode": "snapshot",
            "title": "Complication of pregnancy, childbirth and/or the puerperium",
            "entry": [
              {
                "reference": "CarePlan/0a645a42-fe48-p001-0001-dphr00hi115a"
              }
            ]
          }
        ],
        "status": "final",
        "subject": {
          "reference": "Patient/a01bacd2-pt5c-11ea-b3de-0242ac110000",
          "display": "Eve Bill"
        },
        "encounter": {
          "reference": "Encounter/0a645a42-fe48-e001-0001-dphr00hi115a",
          "display": "Consultation on 10th Aug 2020 at Downunder Hospital"
        },
        "date": "2020-11-12T16:13:03+10:00",
        "author": [
          {
            "reference": "Practitioner/p01bacd2-or5c-11ea-b3de-0242ac130002",
            "display": "Helen Mayo"
          }
        ],
        "attester": [
          {
            "mode": "professional",
            "party": {
              "reference": "Organization/o01bacd2-or5c-11ea-b3de-0242ac130002",
              "display": "Downunder Hospital"
            }
          }
        ],
        "custodian": {
          "reference": "Organization/o01bacd2-or5c-11ea-b3de-0242ac130002",
          "display": "Downunder Hospital"
        }
      }
    },
    {
      "fullUrl": "urn:uuid:a01bacd2-pt5c-11ea-b3de-0242ac110000",
      "resource": {
        "resourceType": "Patient",
        "id": "a01bacd2-pt5c-11ea-b3de-0242ac110000",
        "meta": {
          "profile": [
            "http://build.fhir.org/ig/hl7au/au-fhir-childhealth/StructureDefinition/ncdhc-patient-expectant-mother"
          ]
        },
        "identifier": [
          {
            "type": {
              "coding": [
                {
                  "system": "http://terminology.hl7.org/CodeSystem/v2-0203",
                  "code": "NI",
                  "display": "National unique individual identifier"
                }
              ],
              "text": "IHI"
            },
            "system": "http://ns.electronichealth.net.au/id/hi/ihi/1.0",
            "value": "8003608000024083"
          },
          {
            "type": {
              "coding": [
                {
                  "system": "http://terminology.hl7.org/CodeSystem/v2-0203",
                  "code": "MR",
                  "display": "Medical record number"
                }
              ],
              "text": "Medical Record Number"
            },
            "system": "http://ns.electronichealth.net.au/id/hpio-scoped/medicalrecord/1.0/8003620000000000",
            "value": "02133000",
            "assigner": {
              "display": "Blacktown Hospital"
            }
          }
        ],
        "active": true,
        "name": [
          {
            "use": "official",
            "given": [
              "Lina"
            ],
            "family": "Smith"
          }
        ],
        "gender": "female",
        "birthDate": "1996-08-01",
        "address": [
          {
            "use": "home",
            "line": [
              "31 Pacquola Street"
            ],
            "city": "Blacktown",
            "state": "NSW",
            "country": "AU"
          }
        ]
      }
    },
    {
      "fullUrl": "urn:uuid:0a645a42-fe48-e001-0001-dphr00hi115a",
      "resource": {
        "resourceType": "Encounter",
        "id": "0a645a42-fe48-e001-0001-dphr00hi115a",
        "meta": {
          "profile": [
            "http://build.fhir.org/ig/hl7au/au-fhir-childhealth/StructureDefinition/ncdhc-encounter-dphr"
          ]
        },
        "status": "finished",
        "class": {
          "code": "AMB",
          "system": "http://terminology.hl7.org/CodeSystem/v3-ActCode",
          "display": "ambulatory"
        },
        "subject": {
          "reference": "Patient/a01bacd2-pt5c-11ea-b3de-0242ac110000",
          "display": "Eve Bill"
        },
        "period": {
          "start": "2020-11-10T16:13:03+10:00",
          "end": "2020-11-10T16:13:03+10:00"
        },
        "contained": [
          {
            "resourceType": "Location",
            "id": "0a645a42-fe48-l001-0001-dphr00hi115a",
            "name": "Downunder Hospital"
          }
        ],
        "location": [
          {
            "location": {
              "reference": "#0a645a42-fe48-l001-0001-dphr00hi115a",
              "display": "Downunder Hospital"
            },
            "status": "completed"
          }
        ]
      }
    },
    {
      "fullUrl": "urn:uuid:p01bacd2-or5c-11ea-b3de-0242ac130002",
      "resource": {
        "resourceType": "Practitioner",
        "id": "p01bacd2-or5c-11ea-b3de-0242ac130002",
        "meta": {
          "profile": [
            "http://build.fhir.org/ig/hl7au/au-fhir-childhealth/StructureDefinition/ncdhc-practitioner"
          ]
        },
        "identifier": [
          {
            "type": {
              "coding": [
                {
                  "system": "http://terminology.hl7.org/CodeSystem/v2-0203",
                  "code": "NPI",
                  "display": "National provider identifier"
                }
              ],
              "text": "HPI-I"
            },
            "system": "http://ns.electronichealth.net.au/id/hi/hpii/1.0",
            "value": "8003619900015717"
          }
        ],
        "active": true,
        "name": [
          {
            "given": [
              "Helen"
            ],
            "family": "Mayo"
          }
        ]
      }
    },
    {
      "fullUrl": "urn:uuid:o01bacd2-or5c-11ea-b3de-0242ac130002",
      "resource": {
        "resourceType": "Organization",
        "id": "o01bacd2-or5c-11ea-b3de-0242ac130002",
        "meta": {
          "profile": [
            "http://build.fhir.org/ig/hl7au/au-fhir-childhealth/StructureDefinition/ncdhc-organisation"
          ]
        },
        "identifier": [
          {
            "type": {
              "coding": [
                {
                  "system": "http://terminology.hl7.org.au/CodeSystem/v2-0203",
                  "code": "NOI",
                  "display": "National Organisation Identifier"
                }
              ],
              "text": "HPI-O"
            },
            "system": "http://ns.electronichealth.net.au/id/hi/hpio/1.0",
            "value": "8003621566684455"
          }
        ],
        "active": true,
        "name": "Downunder Hospital"
      }
    },
    {
      "fullUrl": "urn:uuid:0a645a42-fe48-p001-0001-dphr00hi115a",
      "resource": {
        "resourceType": "CarePlan",
        "id": "0a645a42-fe48-p001-0001-dphr00hi115a",
        "meta": {
          "profile": [
            "http://build.fhir.org/ig/hl7au/au-fhir-childhealth/StructureDefinition/ncdhc-careplan-pregnancy-complication"
          ]
        },
        "intent": "plan",
        "category": [
          {
            "coding": [
              {
                "code": "129755006",
                "system": "http://snomed.info/sct",
                "display": "Punctate calcification"
              }
            ]
          }
        ],
        "title": "Pregnancy Complication Treatement Plan",
        "status": "active",
        "subject": {
          "reference": "Patient/a01bacd2-pt5c-11ea-b3de-0242ac110000",
          "display": "Eve Bill"
        },
        "created": "2020-11-10T16:13:03+10:00",
        "period": {
          "start": "2020-11-10T16:13:03+10:00",
          "end": "2020-12-10T16:13:03+10:00"
        },
        "contributor": [
          {
            "reference": "Patient/a01bacd2-pt5c-11ea-b3de-0242ac110000",
            "display": "Eve Bill"
          }
        ],
        "careTeam": [
          {
            "reference": "CareTeam/0a645a42-fe48-ct001-0001-dphr00hi115a"
          }
        ],
        "addresses": [
          {
            "reference": "Condition/0a645a42-fe48-p002-0001-dphr00hi115a"
          }
        ],
        "note": [
          {
            "text": "Punctate calcifications are considered typically benign when regional or diffuse in distribution."
          }
        ]
      }
    }
  ]
}
