{
  "resourceType": "Bundle",
  "id": "ncdhc-document-child-presented-ed-example",
  "meta": {
    "profile": [
      "http://build.fhir.org/ig/hl7au/au-fhir-childhealth/StructureDefinition/ncdhc-bundle-child-presented-in-ed-document"
    ]
  },
  "type": "document",
  "identifier": {
    "system": "urn:ietf:rfc:3986",
    "value": "urn:uuid:0c3151bd-1abf-4d67-s04k-cd1017a4c6e0"
  },
  "timestamp": "2020-08-10T16:13:03+10:00",
  "entry": [
    {
      "fullUrl": "urn:uuid:0a645a42-fe48-c001-0001-cdhr00hi0040",
      "resource": {
        "resourceType": "Composition",
        "id": "0a645a42-fe48-c001-0001-cdhr00hi0040",
        "meta": {
          "profile": [
            "http://build.fhir.org/ig/hl7au/au-fhir-childhealth/StructureDefinition/ncdhc-composition-document-child-presented-in-ed"
          ]
        },
        "title": "Child Presented in ED",
        "type": {
          "coding": [
            {
              "code": "CHPED",
              "system": "http://hl7.org.au/fhir/ch/v1/CodeSystem/ncdhc-hi-type-1"
            }
          ]
        },
        "category": [
          {
            "coding": [
              {
                "code": "CHPED",
                "system": "http://hl7.org.au/fhir/ch/v1/CodeSystem/ncdhc-document-class-1"
              }
            ]
          }
        ],
        "status": "final",
        "subject": {
          "reference": "Patient/a01bacd2-pt5c-11ea-b3de-0242ac130000",
          "display": "Baby of Lina Smith"
        },
        "encounter": {
          "reference": "Encounter/0a645a42-fe48-e001-0001-cdhr00hi0040",
          "display": "Downunder Hospital"
        },
        "date": "2020-08-10T16:13:03+10:00",
        "author": [
          {
            "reference": "Practitioner/p01bacd2-or5c-11ea-b3de-0242ac130002",
            "display": "Helen Mayo"
          }
        ],
        "attester": [
          {
            "mode": "professional",
            "party": {
              "reference": "Organization/o01bacd2-or5c-11ea-b3de-0242ac130002",
              "display": "Downunder Hospital"
            }
          }
        ],
        "custodian": {
          "reference": "Organization/o01bacd2-or5c-11ea-b3de-0242ac130002",
          "display": "Downunder Hospital"
        },
        "section": [
          {
            "mode": "snapshot",
            "title": "Child Presented in ED",
            "code": {
              "coding": [
                {
                  "code": "4525004",
                  "system": "http://snomed.info/sct",
                  "display": "Emergency department patient visit"
                }
              ]
            },
            "entry": [
              {
                "reference": "Observation/0a645a42-fe48-o001-0001-cdhr00hi0040",
                "display": "presenting complaint or issues experienced by child"
              },
              {
                "reference": "Observation/0a645a42-fe48-o002-0001-cdhr00hi0040",
                "display": "Diagnosis"
              },
              {
                "reference": "Observation/0a645a42-fe48-o003-0001-cdhr00hi0040",
                "display": "Comments"
              }
            ]
          }
        ]
      }
    },
    {
      "fullUrl": "urn:uuid:a01bacd2-pt5c-11ea-b3de-0242ac130000",
      "resource": {
        "resourceType": "Patient",
        "id": "a01bacd2-pt5c-11ea-b3de-0242ac130000",
        "meta": {
          "profile": [
            "http://build.fhir.org/ig/hl7au/au-fhir-childhealth/StructureDefinition/ncdhc-patient-child"
          ]
        },
        "identifier": [
          {
            "type": {
              "coding": [
                {
                  "system": "http://terminology.hl7.org/CodeSystem/v2-0203",
                  "code": "NI",
                  "display": "National unique individual identifier"
                }
              ],
              "text": "IHI"
            },
            "system": "http://ns.electronichealth.net.au/id/hi/ihi/1.0",
            "value": "8003608833357361"
          },
          {
            "type": {
              "coding": [
                {
                  "system": "http://terminology.hl7.org/CodeSystem/v2-0203",
                  "code": "MR",
                  "display": "Medical record number"
                }
              ],
              "text": "Medical Record Number"
            },
            "system": "http://ns.electronichealth.net.au/id/hpio-scoped/medicalrecord/1.0/8003620000000000",
            "value": "02134000",
            "assigner": {
              "display": "Blacktown Hospital"
            }
          }
        ],
        "contact": [
          {
            "relationship": [
              {
                "coding": [
                  {
                    "code": "MTH",
                    "system": "http://terminology.hl7.org/CodeSystem/v3-RoleCode"
                  }
                ]
              }
            ],
            "name": {
              "given": [
                "Lina"
              ],
              "family": "Smith"
            }
          }
        ],
        "active": true,
        "name": [
          {
            "use": "temp",
            "given": [
              "Baby of Lina"
            ],
            "family": "Smith"
          }
        ],
        "gender": "male",
        "birthDate": "2020-08-01"
      }
    },
    {
      "fullUrl": "urn:uuid:0a645a42-fe48-e001-0001-cdhr00hi0040",
      "resource": {
        "resourceType": "Encounter",
        "id": "0a645a42-fe48-e001-0001-cdhr00hi0040",
        "meta": {
          "profile": [
            "http://build.fhir.org/ig/hl7au/au-fhir-childhealth/StructureDefinition/ncdhc-encounter-cdhr"
          ]
        },
        "status": "finished",
        "class": {
          "code": "AMB",
          "system": "http://terminology.hl7.org/CodeSystem/v3-ActCode",
          "display": "ambulatory"
        },
        "subject": {
          "reference": "Patient/a01bacd2-pt5c-11ea-b3de-0242ac130000",
          "display": "Baby of Lina Smith"
        },
        "period": {
          "start": "2020-08-10T16:13:03+10:00",
          "end": "2020-08-10T16:13:03+10:00"
        },
        "contained": [
          {
            "resourceType": "Location",
            "id": "0a645a42-fe48-l001-0001-cdhr00hi0040",
            "name": "Downunder Hospital"
          }
        ],
        "location": [
          {
            "location": {
              "reference": "#0a645a42-fe48-l001-0001-cdhr00hi0040",
              "display": "Downunder Hospital"
            },
            "status": "completed"
          }
        ]
      }
    },
    {
      "fullUrl": "urn:uuid:p01bacd2-or5c-11ea-b3de-0242ac130002",
      "resource": {
        "resourceType": "Practitioner",
        "id": "p01bacd2-or5c-11ea-b3de-0242ac130002",
        "meta": {
          "profile": [
            "http://build.fhir.org/ig/hl7au/au-fhir-childhealth/StructureDefinition/ncdhc-practitioner"
          ]
        },
        "identifier": [
          {
            "type": {
              "coding": [
                {
                  "system": "http://terminology.hl7.org/CodeSystem/v2-0203",
                  "code": "NPI",
                  "display": "National provider identifier"
                }
              ],
              "text": "HPI-I"
            },
            "system": "http://ns.electronichealth.net.au/id/hi/hpii/1.0",
            "value": "8003619900015717"
          }
        ],
        "active": true,
        "name": [
          {
            "given": [
              "Helen"
            ],
            "family": "Mayo"
          }
        ]
      }
    },
    {
      "fullUrl": "urn:uuid:o01bacd2-or5c-11ea-b3de-0242ac130002",
      "resource": {
        "resourceType": "Organization",
        "id": "o01bacd2-or5c-11ea-b3de-0242ac130002",
        "meta": {
          "profile": [
            "http://build.fhir.org/ig/hl7au/au-fhir-childhealth/StructureDefinition/ncdhc-organisation"
          ]
        },
        "identifier": [
          {
            "type": {
              "coding": [
                {
                  "system": "http://terminology.hl7.org.au/CodeSystem/v2-0203",
                  "code": "NOI",
                  "display": "National Organisation Identifier"
                }
              ],
              "text": "HPI-O"
            },
            "system": "http://ns.electronichealth.net.au/id/hi/hpio/1.0",
            "value": "8003621566684455"
          }
        ],
        "active": true,
        "name": "Downunder Hospital"
      }
    },
    {
      "fullUrl": "urn:uuid:0a645a42-fe48-o001-0001-cdhr00hi0040",
      "resource": {
        "resourceType": "Observation",
        "id": "0a645a42-fe48-o001-0001-cdhr00hi0040",
        "meta": {
          "profile": [
            "http://build.fhir.org/ig/hl7au/au-fhir-childhealth/StructureDefinition/ncdhc-observation-presenting-complaint-or-issue"
          ]
        },
        "code": {
          "coding": [
            {
              "code": "33962009",
              "system": "http://snomed.info/sct"
            }
          ]
        },
        "status": "final",
        "subject": {
          "reference": "Patient/a01bacd2-pt5c-11ea-b3de-0242ac130000",
          "display": "Baby of Lina Smith"
        },
        "effectiveDateTime": "2020-08-10T16:13:03+10:00",
        "valueString": "Difficulty breathing, wheezing, breathing through the mouth, fast breathing, frequent respiratory infections, rapid breathing, or shortness of breath at night",
        "performer": [
          {
            "reference": "PractitionerRole/p01bacd2-pr5c-11ea-b3de-0242ac130003",
            "display": "Examiner"
          },
          {
            "reference": "Organization/o01bacd2-or5c-11ea-b3de-0242ac130002",
            "display": "Clinical Responsible Organisation"
          }
        ]
      }
    },
    {
      "fullUrl": "urn:uuid:0a645a42-fe48-o002-0001-cdhr00hi0040",
      "resource": {
        "resourceType": "Observation",
        "id": "0a645a42-fe48-o002-0001-cdhr00hi0040",
        "meta": {
          "profile": [
            "http://build.fhir.org/ig/hl7au/au-fhir-childhealth/StructureDefinition/ncdhc-observation-diognosis"
          ]
        },
        "code": {
          "coding": [
            {
              "code": "439401001",
              "system": "http://snomed.info/sct"
            }
          ]
        },
        "status": "final",
        "subject": {
          "reference": "Patient/a01bacd2-pt5c-11ea-b3de-0242ac130000",
          "display": "Baby of Lina Smith"
        },
        "effectiveDateTime": "2020-08-10T16:13:03+10:00",
        "valueCodeableConcept": {
          "coding": [
            {
              "code": "233678006",
              "display": "Childhood asthma"
            }
          ]
        },
        "performer": [
          {
            "reference": "PractitionerRole/p01bacd2-pr5c-11ea-b3de-0242ac130003",
            "display": "Examiner"
          },
          {
            "reference": "Organization/o01bacd2-or5c-11ea-b3de-0242ac130002",
            "display": "Clinical Responsible Organisation"
          }
        ]
      }
    },
    {
      "fullUrl": "urn:uuid:0a645a42-fe48-o003-0001-cdhr00hi0040",
      "resource": {
        "resourceType": "Observation",
        "id": "0a645a42-fe48-o003-0001-cdhr00hi0040",
        "meta": {
          "profile": [
            "http://build.fhir.org/ig/hl7au/au-fhir-childhealth/StructureDefinition/ncdhc-observation-comments"
          ]
        },
        "code": {
          "coding": [
            {
              "code": "866144008",
              "system": "http://snomed.info/sct"
            }
          ]
        },
        "status": "final",
        "subject": {
          "reference": "Patient/a01bacd2-pt5c-11ea-b3de-0242ac130000",
          "display": "Baby of Lina Smith"
        },
        "effectiveDateTime": "2020-08-10T16:13:03+10:00",
        "valueString": "This is an observation comment",
        "performer": [
          {
            "reference": "PractitionerRole/p01bacd2-pr5c-11ea-b3de-0242ac130003",
            "display": "Examiner"
          },
          {
            "reference": "Organization/o01bacd2-or5c-11ea-b3de-0242ac130002",
            "display": "Clinical Responsible Organisation"
          }
        ]
      }
    }
  ]
}