{
  "resourceType": "Bundle",
  "id": "ncdhc-document-newborn-discharge-example",
  "meta": {
    "profile": [
      "http://build.fhir.org/ig/hl7au/au-fhir-childhealth/StructureDefinition/ncdhc-bundle-newborn-discharge-document"
    ]
  },
  "type": "document",
  "identifier": {
    "system": "urn:ietf:rfc:3986",
    "value": "urn:uuid:0c3151bd-1abf-4d64-b04d-cd1017a4c6e0"
  },
  "timestamp": "2018-11-27T16:13:03+10:00",
  "entry": [
    {
      "fullUrl": "urn:uuid:0a645a42-fe48-c007-0001-cdhr00hi0003",
      "resource": {
        "resourceType": "Composition",
        "id": "0a645a42-fe48-c007-0001-cdhr00hi0003",
        "meta": {
          "profile": [
            "http://build.fhir.org/ig/hl7au/au-fhir-childhealth/StructureDefinition/ncdhc-composition-document-nb-discharge"
          ]
        },
        "title": "Newborn Discharge",
        "type": {
          "coding": [
            {
              "code": "NEWBRNDSCHRG",
              "system": "http://hl7.org.au/fhir/ch/v1/CodeSystem/ncdhc-hi-type-1"
            }
          ]
        },
        "section": [
          {
            "code": {
              "coding": [
                {
                  "code": "118227000",
                  "system": "http://snomed.info/sct",
                  "display": "Vital signs finding"
                }
              ]
            },
            "mode": "snapshot",
            "title": "Vital signs and measurements",
            "entry": [
              {
                "reference": "Observation/0a645a42-fe48-o012-0001-cdhr00hi0003",
                "display": "Body weight"
              },
              {
                "reference": "Observation/0a645a42-fe48-o011-0001-cdhr00hi0003",
                "display": "Body height measure"
              },
              {
                "reference": "Observation/0a645a42-fe48-o013-0001-cdhr00hi0003",
                "display": "Head Circumference"
              }
            ]
          },
          {
            "code": {
              "coding": [
                {
                  "code": "364651009",
                  "system": "http://snomed.info/sct",
                  "display": "Characteristics of infant feeding"
                }
              ]
            },
            "mode": "snapshot",
            "title": "Feeding Status",
            "entry": [
              {
                "reference": "Observation/0a645a42-fe48-o006-0001-cdhr00hi0003"
              }
            ]
          }
        ],
        "status": "final",
        "subject": {
          "reference": "Patient/a01bacd2-pt5c-11ea-b3de-0242ac130000",
          "display": "Baby of Lina Smith"
        },
        "encounter": {
          "reference": "Encounter/0a645a42-fe48-e008-0001-cdhr00hi0003",
          "display": "Consultation on 10th Aug 2020 at Downunder Hospital"
        },
        "date": "2020-08-12T16:13:03+10:00",
        "author": [
          {
            "reference": "Practitioner/p01bacd2-or5c-11ea-b3de-0242ac130002",
            "display": "Helen Mayo"
          }
        ],
        "attester": [
          {
            "mode": "professional",
            "party": {
              "reference": "Organization/o01bacd2-or5c-11ea-b3de-0242ac130002",
              "display": "Downunder Hospital"
            }
          }
        ],
        "custodian": {
          "reference": "Organization/o01bacd2-or5c-11ea-b3de-0242ac130002",
          "display": "Downunder Hospital"
        }
      }
    },
    {
      "fullUrl": "urn:uuid:a01bacd2-pt5c-11ea-b3de-0242ac130000",
      "resource": {
        "resourceType": "Patient",
        "id": "a01bacd2-pt5c-11ea-b3de-0242ac130000",
        "meta": {
          "profile": [
            "http://build.fhir.org/ig/hl7au/au-fhir-childhealth/StructureDefinition/ncdhc-patient-child"
          ]
        },
        "identifier": [
          {
            "type": {
              "coding": [
                {
                  "system": "http://terminology.hl7.org/CodeSystem/v2-0203",
                  "code": "NI",
                  "display": "National unique individual identifier"
                }
              ],
              "text": "IHI"
            },
            "system": "http://ns.electronichealth.net.au/id/hi/ihi/1.0",
            "value": "8003608833357361"
          },
          {
            "type": {
              "coding": [
                {
                  "system": "http://terminology.hl7.org/CodeSystem/v2-0203",
                  "code": "MR",
                  "display": "Medical record number"
                }
              ],
              "text": "Medical Record Number"
            },
            "system": "http://ns.electronichealth.net.au/id/hpio-scoped/medicalrecord/1.0/8003620000000000",
            "value": "02134000",
            "assigner": {
              "display": "Blacktown Hospital"
            }
          }
        ],
        "contact": [
          {
            "relationship": [
              {
                "coding": [
                  {
                    "code": "MTH",
                    "system": "http://terminology.hl7.org/CodeSystem/v3-RoleCode"
                  }
                ]
              }
            ],
            "name": {
              "given": [
                "Lina"
              ],
              "family": "Smith"
            }
          }
        ],
        "active": true,
        "name": [
          {
            "use": "temp",
            "given": [
              "Baby of Lina"
            ],
            "family": "Smith"
          }
        ],
        "gender": "male",
        "birthDate": "2020-08-01"
      }
    },
    {
      "fullUrl": "urn:uuid:0a645a42-fe48-e008-0001-cdhr00hi0003",
      "resource": {
        "resourceType": "Encounter",
        "id": "0a645a42-fe48-e008-0001-cdhr00hi0003",
        "meta": {
          "profile": [
            "http://build.fhir.org/ig/hl7au/au-fhir-childhealth/StructureDefinition/ncdhc-encounter-cdhr"
          ]
        },
        "status": "finished",
        "class": {
          "code": "AMB",
          "system": "http://terminology.hl7.org/CodeSystem/v3-ActCode",
          "display": "ambulatory"
        },
        "subject": {
          "reference": "Patient/a01bacd2-pt5c-11ea-b3de-0242ac130000",
          "display": "Baby of Lina Smith"
        },
        "period": {
          "start": "2020-08-10T16:13:03+10:00",
          "end": "2020-08-10T16:13:03+10:00"
        },
        "contained": [
          {
            "resourceType": "Location",
            "id": "0a645a42-fe48-l009-0001-cdhr00hi0003",
            "name": "Downunder Hospital"
          }
        ],
        "location": [
          {
            "location": {
              "reference": "#0a645a42-fe48-l009-0001-cdhr00hi0003",
              "display": "Downunder Hospital"
            },
            "status": "completed"
          }
        ]
      }
    },
    {
      "fullUrl": "urn:uuid:p01bacd2-or5c-11ea-b3de-0242ac130002",
      "resource": {
        "resourceType": "Practitioner",
        "id": "p01bacd2-or5c-11ea-b3de-0242ac130002",
        "meta": {
          "profile": [
            "http://build.fhir.org/ig/hl7au/au-fhir-childhealth/StructureDefinition/ncdhc-practitioner"
          ]
        },
        "identifier": [
          {
            "type": {
              "coding": [
                {
                  "system": "http://terminology.hl7.org/CodeSystem/v2-0203",
                  "code": "NPI",
                  "display": "National provider identifier"
                }
              ],
              "text": "HPI-I"
            },
            "system": "http://ns.electronichealth.net.au/id/hi/hpii/1.0",
            "value": "8003619900015717"
          }
        ],
        "active": true,
        "name": [
          {
            "given": [
              "Helen"
            ],
            "family": "Mayo"
          }
        ]
      }
    },
    {
      "fullUrl": "urn:uuid:o01bacd2-or5c-11ea-b3de-0242ac130002",
      "resource": {
        "resourceType": "Organization",
        "id": "o01bacd2-or5c-11ea-b3de-0242ac130002",
        "meta": {
          "profile": [
            "http://build.fhir.org/ig/hl7au/au-fhir-childhealth/StructureDefinition/ncdhc-organisation"
          ]
        },
        "identifier": [
          {
            "type": {
              "coding": [
                {
                  "system": "http://terminology.hl7.org.au/CodeSystem/v2-0203",
                  "code": "NOI",
                  "display": "National Organisation Identifier"
                }
              ],
              "text": "HPI-O"
            },
            "system": "http://ns.electronichealth.net.au/id/hi/hpio/1.0",
            "value": "8003621566684455"
          }
        ],
        "active": true,
        "name": "Downunder Hospital"
      }
    },
    {
      "fullUrl": "urn:uuid:p01bacd2-pr5c-11ea-b3de-0242ac130003",
      "resource": {
        "resourceType": "PractitionerRole",
        "id": "p01bacd2-pr5c-11ea-b3de-0242ac130003",
        "meta": {
          "profile": [
            "http://build.fhir.org/ig/hl7au/au-fhir-childhealth/StructureDefinition/ncdhc-practitioner-role"
          ]
        },
        "identifier": [
          {
            "type": {
              "coding": [
                {
                  "system": "http://terminology.hl7.org.au/CodeSystem/v2-0203",
                  "code": "NPIO",
                  "display": "National Provider at Organisation Identifier"
                }
              ],
              "text": "NPIO"
            },
            "system": "http://hl7.org.au/id/npio",
            "value": "8003619900015717@8003621566684455"
          }
        ],
        "active": true,
        "practitioner": {
          "reference": "Practitioner/p01bacd2-or5c-11ea-b3de-0242ac130002"
        },
        "organization": {
          "reference": "Organization/o01bacd2-or5c-11ea-b3de-0242ac130002"
        },
        "specialty": [
          {
            "coding": [
              {
                "code": "408443003",
                "system": "http://snomed.info/sct",
                "display": "General medical practice"
              }
            ]
          }
        ]
      }
    },
    {
      "fullUrl": "urn:uuid:0a645a42-fe48-o012-0001-cdhr00hi0003",
      "resource": {
        "resourceType": "Observation",
        "id": "0a645a42-fe48-o012-0001-cdhr00hi0003",
        "meta": {
          "profile": [
            "http://build.fhir.org/ig/hl7au/au-fhir-childhealth/StructureDefinition/ncdhc-observation-vitalsign-bodyweight"
          ]
        },
        "category": [
          {
            "coding": [
              {
                "system": "http://terminology.hl7.org/CodeSystem/observation-category",
                "code": "vital-signs"
              }
            ]
          }
        ],
        "code": {
          "coding": [
            {
              "system": "http://loinc.org",
              "code": "29463-7",
              "display": "Body weight"
            },
            {
              "system": "http://snomed.info/sct",
              "code": "27113001",
              "display": "Body weight"
            }
          ]
        },
        "valueQuantity": {
          "code": "kg",
          "system": "http://unitsofmeasure.org",
          "value": 2.1,
          "unit": "kg"
        },
        "status": "final",
        "subject": {
          "reference": "Patient/a01bacd2-pt5c-11ea-b3de-0242ac130000",
          "display": "Baby of Lina Smith"
        },
        "effectiveDateTime": "2020-08-10T16:13:03+10:00",
        "performer": [
          {
            "reference": "PractitionerRole/p01bacd2-pr5c-11ea-b3de-0242ac130003",
            "display": "Examiner"
          },
          {
            "reference": "Organization/o01bacd2-or5c-11ea-b3de-0242ac130002",
            "display": "Clinical Responsible Organisation"
          }
        ]
      }
    },
    {
      "fullUrl": "urn:uuid:0a645a42-fe48-o011-0001-cdhr00hi0003",
      "resource": {
        "resourceType": "Observation",
        "id": "0a645a42-fe48-o011-0001-cdhr00hi0003",
        "meta": {
          "profile": [
            "http://build.fhir.org/ig/hl7au/au-fhir-childhealth/StructureDefinition/ncdhc-observation-vitalsign-bodyheight"
          ]
        },
        "category": [
          {
            "coding": [
              {
                "system": "http://terminology.hl7.org/CodeSystem/observation-category",
                "code": "vital-signs"
              }
            ]
          }
        ],
        "code": {
          "coding": [
            {
              "system": "http://loinc.org",
              "code": "8302-2",
              "display": "Body height"
            },
            {
              "system": "http://snomed.info/sct",
              "code": "50373000",
              "display": "Body height measure"
            }
          ]
        },
        "valueQuantity": {
          "code": "cm",
          "system": "http://unitsofmeasure.org",
          "value": 125.1,
          "unit": "cm"
        },
        "status": "final",
        "subject": {
          "reference": "Patient/a01bacd2-pt5c-11ea-b3de-0242ac130000",
          "display": "Baby of Lina Smith"
        },
        "effectiveDateTime": "2020-08-10T16:13:03+10:00",
        "performer": [
          {
            "reference": "PractitionerRole/p01bacd2-pr5c-11ea-b3de-0242ac130003",
            "display": "Examiner"
          },
          {
            "reference": "Organization/o01bacd2-or5c-11ea-b3de-0242ac130002",
            "display": "Clinical Responsible Organisation"
          }
        ],
        "interpretation": [
          {
            "coding": [
              {
                "code": "17621005",
                "system": "http://snomed.info/sct",
                "display": "Normal"
              }
            ]
          }
        ],
        "note": [
          {
            "text": "patient's height is normal"
          }
        ]
      }
    },
    {
      "fullUrl": "urn:uuid:0a645a42-fe48-o013-0001-cdhr00hi0003",
      "resource": {
        "resourceType": "Observation",
        "id": "0a645a42-fe48-o013-0001-cdhr00hi0003",
        "meta": {
          "profile": [
            "http://build.fhir.org/ig/hl7au/au-fhir-childhealth/StructureDefinition/ncdhc-observation-vitalsign-head-circumference"
          ]
        },
        "category": [
          {
            "coding": [
              {
                "system": "http://terminology.hl7.org/CodeSystem/observation-category",
                "code": "vital-signs"
              }
            ]
          }
        ],
        "code": {
          "coding": [
            {
              "system": "http://loinc.org",
              "code": "9843-4",
              "display": "Head Occipital-frontal circumference"
            },
            {
              "system": "http://snomed.info/sct",
              "code": "363812007",
              "display": "Head Circumference"
            }
          ]
        },
        "valueQuantity": {
          "code": "cm",
          "system": "http://unitsofmeasure.org",
          "value": 35,
          "unit": "cm"
        },
        "status": "final",
        "subject": {
          "reference": "Patient/a01bacd2-pt5c-11ea-b3de-0242ac130000",
          "display": "Baby of Lina Smith"
        },
        "effectiveDateTime": "2020-08-10T16:13:03+10:00",
        "performer": [
          {
            "reference": "PractitionerRole/p01bacd2-pr5c-11ea-b3de-0242ac130003",
            "display": "Examiner"
          },
          {
            "reference": "Organization/o01bacd2-or5c-11ea-b3de-0242ac130002",
            "display": "Clinical Responsible Organisation"
          }
        ]
      }
    },
    {
      "fullUrl": "urn:uuid:0a645a42-fe48-o006-0001-cdhr00hi0003",
      "resource": {
        "resourceType": "Observation",
        "id": "0a645a42-fe48-o006-0001-cdhr00hi0003",
        "meta": {
          "profile": [
            "http://build.fhir.org/ig/hl7au/au-fhir-childhealth/StructureDefinition/ncdhc-observation-feeding-status"
          ]
        },
        "code": {
          "coding": [
            {
              "code": "364651009",
              "system": "http://snomed.info/sct",
              "display": "Characteristics of infant feeding"
            }
          ]
        },
        "status": "final",
        "subject": {
          "reference": "Patient/a01bacd2-pt5c-11ea-b3de-0242ac130000",
          "display": "Baby of Lina Smith"
        },
        "effectiveDateTime": "2020-08-10T16:13:03+10:00",
        "hasMember": [
          {
            "reference": "Observation/0a645a42-fe48-o004-0001-cdhr00hi0003"
          },
          {
            "reference": "Observation/0a645a42-fe48-o005-0001-cdhr00hi0003"
          }
        ],
        "performer": [
          {
            "reference": "PractitionerRole/p01bacd2-pr5c-11ea-b3de-0242ac130003",
            "display": "Examiner"
          },
          {
            "reference": "Organization/o01bacd2-or5c-11ea-b3de-0242ac130002",
            "display": "Clinical Responsible Organisation"
          }
        ]
      }
    },
    {
      "fullUrl": "urn:uuid:0a645a42-fe48-o004-0001-cdhr00hi0003",
      "resource": {
        "resourceType": "Observation",
        "id": "0a645a42-fe48-o004-0001-cdhr00hi0003",
        "meta": {
          "profile": [
            "http://build.fhir.org/ig/hl7au/au-fhir-childhealth/StructureDefinition/ncdhc-observation-feeding-method"
          ]
        },
        "code": {
          "coding": [
            {
              "code": "169740003",
              "system": "http://snomed.info/sct",
              "display": "Infant feeding method"
            }
          ]
        },
        "status": "final",
        "subject": {
          "reference": "Patient/a01bacd2-pt5c-11ea-b3de-0242ac130000",
          "display": "Baby of Lina Smith"
        },
        "effectiveDateTime": "2020-08-10T16:13:03+10:00",
        "valueCodeableConcept": {
          "coding": [
            {
              "code": "169741004",
              "system": "http://snomed.info/sct",
              "display": "Infant breastfed"
            }
          ]
        },
        "performer": [
          {
            "reference": "PractitionerRole/p01bacd2-pr5c-11ea-b3de-0242ac130003",
            "display": "Examiner"
          },
          {
            "reference": "Organization/o01bacd2-or5c-11ea-b3de-0242ac130002",
            "display": "Clinical Responsible Organisation"
          }
        ]
      }
    },
    {
      "fullUrl": "urn:uuid:0a645a42-fe48-o005-0003-cdhr00hi0003",
      "resource": {
        "resourceType": "Observation",
        "id": "0a645a42-fe48-o005-0003-cdhr00hi0003",
        "meta": {
          "profile": [
            "http://build.fhir.org/ig/hl7au/au-fhir-childhealth/StructureDefinition/ncdhc-observation-milk-intake"
          ]
        },
        "code": {
          "coding": [
            {
              "code": "226408000",
              "system": "http://snomed.info/sct",
              "display": "Baby milk intake"
            }
          ]
        },
        "status": "final",
        "subject": {
          "reference": "Patient/a01bacd2-pt5c-11ea-b3de-0242ac130000",
          "display": "Baby of Lina Smith"
        },
        "effectiveDateTime": "2020-08-10T16:13:03+10:00",
        "valueCodeableConcept": {
          "coding": [
            {
              "code": "386127005",
              "system": "http://snomed.info/sct",
              "display": "Formula milk"
            }
          ]
        },
        "performer": [
          {
            "reference": "PractitionerRole/p01bacd2-pr5c-11ea-b3de-0242ac130003",
            "display": "Examiner"
          },
          {
            "reference": "Organization/o01bacd2-or5c-11ea-b3de-0242ac130002",
            "display": "Clinical Responsible Organisation"
          }
        ]
      }
    }
  ]
}
