{
  "resourceType": "Bundle",
  "id": "ncdhc-document-nb-bloodspot-screen-example",
  "meta": {
    "profile": [
      "http://build.fhir.org/ig/hl7au/au-fhir-childhealth/StructureDefinition/ncdhc-bundle-document"
    ]
  },
  "type": "document",
  "identifier": {
    "system": "urn:ietf:rfc:3986",
    "value": "urn:uuid:0c3151bd-1cbf-4d64-b04d-cd9187a4c6e0"
  },
  "timestamp": "2018-12-27T16:13:03+10:00",
  "entry": [
    {
      "fullUrl": "urn:uuid:a01bacd2-bb5c-11ea-b3de-0242ac130000",
      "resource": {
        "resourceType": "Composition",
        "id": "a01bacd2-bb5c-11ea-b3de-0242ac130000",
        "meta": {
          "profile": [
            "http://build.fhir.org/ig/hl7au/au-fhir-childhealth/StructureDefinition/ncdhc-composition-document-nb-bloodspot-screen"
          ]
        },
        "attester": [
          {
            "mode": "professional",
            "party": {
              "reference": "Organization/a01bacd2-or5c-11ea-b3de-0242ac130002",
              "display": "Downunder Hospital"
            }
          }
        ],
        "status": "final",
        "type": {
          "coding": [
            {
              "code": "NEWBRNBLDSCR",
              "system": "http://hl7.org.au/fhir/ch/v1/CodeSystem/ncdhc-hi-type-1",
              "display": "Newborn Bloodspot Screen"
            }
          ]
        },
        "subject": {
          "reference": "Patient/a01bacd2-pt5c-11ea-b3de-0242ac130001",
          "display": "Child of Eve Bill"
        },
        "encounter": {
          "reference": "Encounter/a01bacd2-ec5c-11ea-b3de-0242ac130004",
          "display": "Consultation on 12th Aug 2020 at Downunder Hospital"
        },
        "date": "2020-08-12T16:13:03+10:00",
        "author": [
          {
            "reference": "PractitionerRole/a01bacd2-pr5c-11ea-b3de-0242ac130003",
            "display": "Helen Mayo"
          }
        ],
        "title": "Newborn blood spot screening",
        "custodian": {
          "reference": "Organization/a01bacd2-or5c-11ea-b3de-0242ac130002",
          "display": "Downunder Hospital"
        },
        "section": [
          {
            "title": "Newborn blood spot screening",
            "code": {
              "coding": [
                {
                  "code": "428447008",
                  "system": "http://snomed.info/sct",
                  "display": "Newborn blood spot screening"
                }
              ]
            },
            "entry": [
              {
                "reference": "Observation/a01bacd2-ob1c-01ea-b3de-0242ac130000"
              }
            ]
          }
        ]
      }
    },
    {
      "fullUrl": "urn:uuid:a01bacd2-pt5c-11ea-b3de-0242ac130001",
      "resource": {
        "resourceType": "Patient",
        "id": "a01bacd2-pt5c-11ea-b3de-0242ac130001",
        "meta": {
          "profile": [
            "http://build.fhir.org/ig/hl7au/au-fhir-childhealth/StructureDefinition/ncdhc-patient-child"
          ]
        },
        "identifier": [
          {
            "system": "http://ns.electronichealth.net.au/id/hi/ihi/1.0",
            "type": {
              "coding": [
                {
                  "system": "http://terminology.hl7.org/CodeSystem/v2-0203",
                  "code": "NI"
                }
              ],
              "text": "IHI"
            },
            "value": "8003608166690503"
          },
          {
            "type": {
              "coding": [
                {
                  "system": "http://terminology.hl7.org/CodeSystem/v2-0203",
                  "code": "MR"
                }
              ],
              "text": "Medical Record Number"
            },
            "system": "http://ns.electronichealth.net.au/id/hpio-scoped/medicalrecord/1.0/8003620000000000",
            "value": "02134000",
            "assigner": {
              "display": "Blacktown Hospital"
            }
          }
        ],
        "contact": [
          {
            "relationship": [
              {
                "coding": [
                  {
                    "code": "MTH",
                    "system": "http://terminology.hl7.org/CodeSystem/v3-RoleCode"
                  }
                ]
              }
            ],
            "name": {
              "given": [
                "Eva"
              ],
              "family": "Bill"
            }
          }
        ],
        "active": true,
        "name": [
          {
            "use": "temp",
            "given": [
              "Baby Of Eve"
            ],
            "family": "Eve Bill"
          }
        ],
        "gender": "female",
        "birthDate": "2020-01-01"
      }
    },
    {
      "fullUrl": "urn:uuid:a01bacd2-or5c-11ea-b3de-0242ac130002",
      "resource": {
        "resourceType": "Organization",
        "id": "a01bacd2-or5c-11ea-b3de-0242ac130002",
        "meta": {
          "profile": [
            "http://hl7.org.au/fhir/StructureDefinition/au-organization"
          ]
        },
        "active": true,
        "name": "Downunder Hospital"
      }
    },
    {
      "fullUrl": "urn:uuid:a01bacd2-pr5c-11ea-b3de-0242ac130003",
      "resource": {
        "resourceType": "PractitionerRole",
        "id": "a01bacd2-pr5c-11ea-b3de-0242ac130003",
        "meta": {
          "profile": [
            "http://hl7.org.au/fhir/StructureDefinition/au-practitionerrole"
          ]
        },
        "active": true,
        "practitioner": {
          "reference": "Practitioner/p01bacd2-or5c-11ea-b3de-0242ac130002"
        },
        "organization": {
          "reference": "Organization/a01bacd2-or5c-11ea-b3de-0242ac130002"
        },
        "specialty": [
          {
            "coding": [
              {
                "code": "408443003",
                "system": "http://snomed.info/sct",
                "display": "General medical practice"
              }
            ]
          }
        ]
      }
    },
    {
      "fullUrl": "urn:uuid:a01bacd2-ec5c-11ea-b3de-0242ac130004",
      "resource": {
        "resourceType": "Encounter",
        "id": "a01bacd2-ec5c-11ea-b3de-0242ac130004",
        "meta": {
          "profile": [
            "http://build.fhir.org/ig/hl7au/au-fhir-childhealth/StructureDefinition/ncdhc-encounter-cdhr"
          ]
        },
        "status": "finished",
        "class": {
          "code": "AMB",
          "system": "http://terminology.hl7.org/CodeSystem/v3-ActCode",
          "display": "ambulatory"
        },
        "subject": {
          "reference": "Patient/a01bacd2-pt5c-11ea-b3de-0242ac130001",
          "display": "Child of Eve Bill"
        },
        "period": {
          "start": "2020-08-12T16:13:03+10:00",
          "end": "2020-08-12T16:13:03+10:00"
        },
        "contained": [
          {
            "resourceType": "Location",
            "id": "ncdhc-location-cdhr-nb-bloodspot-screen-example",
            "name": "Downunder Hospital"
          }
        ],
        "location": [
          {
            "location": {
              "reference": "#ncdhc-location-cdhr-nb-bloodspot-screen-example",
              "display": "Downunder Hospital"
            },
            "status": "completed"
          }
        ]
      }
    },
    {
      "fullUrl": "urn:uuid:a01bacd2-ob1c-01ea-b3de-0242ac130000",
      "resource": {
        "resourceType": "Observation",
        "id": "a01bacd2-ob1c-01ea-b3de-0242ac130000",
        "meta": {
          "profile": [
            "http://build.fhir.org/ig/hl7au/au-fhir-childhealth/StructureDefinition/ncdhc-observation-nb-bloodspot-screen"
          ]
        },
        "code": {
          "coding": [
            {
              "code": "428447008",
              "system": "http://snomed.info/sct",
              "display": "Newborn blood spot screening"
            }
          ]
        },
        "status": "final",
        "subject": {
          "reference": "Patient/a01bacd2-pt5c-11ea-b3de-0242ac130001",
          "display": "Baby of Eve Bill"
        },
        "effectiveDateTime": "2020-08-12T16:13:03+10:00",
        "valueCodeableConcept": {
          "coding": [
            {
              "code": "443938003",
              "system": "http://snomed.info/sct",
              "display": "Procedure carried out on subject"
            }
          ]
        },
        "performer": [
          {
            "reference": "PractitionerRole/a01bacd2-pr5c-11ea-b3de-0242ac130003",
            "display": "Examiner"
          },
          {
            "reference": "Organization/a01bacd2-or5c-11ea-b3de-0242ac130002",
            "display": "Clinical Responsible Organisation"
          }
        ]
      }
    }
  ]
}
