{
  "resourceType": "Bundle",
  "id": "ncdhc-document-pregnancy-outcome-example",
  "meta": {
    "profile": [
      "http://build.fhir.org/ig/hl7au/au-fhir-childhealth/StructureDefinition/ncdhc-bundle-pregnancy-outcome-document"
    ]
  },
  "type": "document",
  "identifier": {
    "system": "urn:ietf:rfc:3986",
    "value": "urn:uuid:0c3151bd-1abf-4d64-p04e-cd1017a4c6e0"
  },
  "timestamp": "2018-12-27T16:13:03+10:00",
  "entry": [
    {
      "fullUrl": "urn:uuid:0a645a42-fe48-c001-0001-dphr00hi0109",
      "resource": {
        "resourceType": "Composition",
        "id": "0a645a42-fe48-c001-0001-dphr00hi0109",
        "meta": {
          "profile": [
            "http://build.fhir.org/ig/hl7au/au-fhir-childhealth/StructureDefinition/ncdhc-composition-document-pregnancy-outcome"
          ]
        },
        "title": "Pregnancy outcome",
        "type": {
          "coding": [
            {
              "code": "PREGOTCOME",
              "system": "https://healthterminologies.gov.au/fhir/CodeSystem/ncdhc-hi-type-2"
            }
          ]
        },
        "category": [
          {
            "coding": [
              {
                "code": "PREGDTLS",
                "system": "https://healthterminologies.gov.au/fhir/CodeSystem/ncdhc-hi-category-1"
              }
            ]
          }
        ],
        "section": [
          {
            "code": {
              "coding": [
                {
                  "code": "1403101000168108",
                  "system": "http://snomed.info/sct",
                  "display": "Pregnancy outcome"
                }
              ]
            },
            "mode": "snapshot",
            "title": "Current pregnancy outcome",
            "entry": [
              {
                "reference": "Observation/0a645a42-fe48-o001-0001-dphr00hi0109"
              },
              {
                "reference": "Observation/0a645a42-fe48-o002-0001-dphr00hi0109"
              },
              {
                "reference": "Observation/0a645a42-fe48-o003-0001-dphr00hi0109"
              },
              {
                "reference": "Patient/0a645a42-fe48-p001-0001-dphr00hi0109"
              }
            ]
          }
        ],
        "status": "final",
        "subject": {
          "reference": "Patient/a01bacd2-pt5c-11ea-b3de-0242ac110000",
          "display": "Eve Bill"
        },
        "encounter": {
          "reference": "Encounter/0a645a42-fe48-e001-0001-dphr00hi0109",
          "display": "Consultation on 10th Aug 2020 at Downunder Hospital"
        },
        "date": "2018-12-27T16:13:03+10:00",
        "author": [
          {
            "reference": "Practitioner/p01bacd2-or5c-11ea-b3de-0242ac130002",
            "display": "Helen Mayo"
          }
        ],
        "attester": [
          {
            "mode": "professional",
            "party": {
              "reference": "Organization/o01bacd2-or5c-11ea-b3de-0242ac130002",
              "display": "Downunder Hospital"
            }
          }
        ],
        "custodian": {
          "reference": "Organization/o01bacd2-or5c-11ea-b3de-0242ac130002",
          "display": "Downunder Hospital"
        }
      }
    },
    {
      "fullUrl": "urn:uuid:a01bacd2-pt5c-11ea-b3de-0242ac110000",
      "resource": {
        "resourceType": "Patient",
        "id": "a01bacd2-pt5c-11ea-b3de-0242ac110000",
        "meta": {
          "profile": [
            "http://build.fhir.org/ig/hl7au/au-fhir-childhealth/StructureDefinition/ncdhc-patient-expectant-mother"
          ]
        },
        "identifier": [
          {
            "type": {
              "coding": [
                {
                  "system": "http://terminology.hl7.org/CodeSystem/v2-0203",
                  "code": "NI",
                  "display": "National unique individual identifier"
                }
              ],
              "text": "IHI"
            },
            "system": "http://ns.electronichealth.net.au/id/hi/ihi/1.0",
            "value": "8003608000024083"
          },
          {
            "type": {
              "coding": [
                {
                  "system": "http://terminology.hl7.org/CodeSystem/v2-0203",
                  "code": "MR",
                  "display": "Medical record number"
                }
              ],
              "text": "Medical Record Number"
            },
            "system": "http://ns.electronichealth.net.au/id/hpio-scoped/medicalrecord/1.0/8003620000000000",
            "value": "02133000",
            "assigner": {
              "display": "Blacktown Hospital"
            }
          }
        ],
        "active": true,
        "name": [
          {
            "use": "official",
            "given": [
              "Lina"
            ],
            "family": "Smith"
          }
        ],
        "gender": "female",
        "birthDate": "1996-08-01",
        "address": [
          {
            "use": "home",
            "line": [
              "31 Pacquola Street"
            ],
            "city": "Blacktown",
            "state": "NSW",
            "country": "AU"
          }
        ]
      }
    },
    {
      "fullUrl": "urn:uuid:0a645a42-fe48-e001-0001-dphr00hi0109",
      "resource": {
        "resourceType": "Encounter",
        "id": "0a645a42-fe48-e001-0001-dphr00hi0109",
        "meta": {
          "profile": [
            "http://build.fhir.org/ig/hl7au/au-fhir-childhealth/StructureDefinition/ncdhc-encounter-dphr"
          ]
        },
        "status": "finished",
        "class": {
          "code": "AMB",
          "system": "http://terminology.hl7.org/CodeSystem/v3-ActCode",
          "display": "ambulatory"
        },
        "subject": {
          "reference": "Patient/a01bacd2-pt5c-11ea-b3de-0242ac110000",
          "display": "Eve Bill"
        },
        "period": {
          "start": "2018-12-27T16:13:03+10:00",
          "end": "2018-12-27T16:13:03+10:00"
        },
        "contained": [
          {
            "resourceType": "Location",
            "id": "0a645a42-fe48-l001-0001-dphr00hi0109",
            "name": "Downunder Hospital"
          }
        ],
        "location": [
          {
            "location": {
              "reference": "#0a645a42-fe48-l001-0001-dphr00hi0109",
              "display": "Downunder Hospital"
            },
            "status": "completed"
          }
        ]
      }
    },
    {
      "fullUrl": "urn:uuid:p01bacd2-or5c-11ea-b3de-0242ac130002",
      "resource": {
        "resourceType": "Practitioner",
        "id": "p01bacd2-or5c-11ea-b3de-0242ac130002",
        "meta": {
          "profile": [
            "http://build.fhir.org/ig/hl7au/au-fhir-childhealth/StructureDefinition/ncdhc-practitioner"
          ]
        },
        "identifier": [
          {
            "type": {
              "coding": [
                {
                  "system": "http://terminology.hl7.org/CodeSystem/v2-0203",
                  "code": "NPI",
                  "display": "National provider identifier"
                }
              ],
              "text": "HPI-I"
            },
            "system": "http://ns.electronichealth.net.au/id/hi/hpii/1.0",
            "value": "8003619900015717"
          }
        ],
        "active": true,
        "name": [
          {
            "given": [
              "Helen"
            ],
            "family": "Mayo"
          }
        ]
      }
    },
    {
      "fullUrl": "urn:uuid:o01bacd2-or5c-11ea-b3de-0242ac130002",
      "resource": {
        "resourceType": "Organization",
        "id": "o01bacd2-or5c-11ea-b3de-0242ac130002",
        "meta": {
          "profile": [
            "http://build.fhir.org/ig/hl7au/au-fhir-childhealth/StructureDefinition/ncdhc-organisation"
          ]
        },
        "identifier": [
          {
            "type": {
              "coding": [
                {
                  "system": "http://terminology.hl7.org.au/CodeSystem/v2-0203",
                  "code": "NOI",
                  "display": "National Organisation Identifier"
                }
              ],
              "text": "HPI-O"
            },
            "system": "http://ns.electronichealth.net.au/id/hi/hpio/1.0",
            "value": "8003621566684455"
          }
        ],
        "active": true,
        "name": "Downunder Hospital"
      }
    },
    {
      "fullUrl": "urn:uuid:0a645a42-fe48-o001-0001-dphr00hi0109",
      "resource": {
        "resourceType": "Observation",
        "id": "0a645a42-fe48-o001-0001-dphr00hi0109",
        "meta": {
          "profile": [
            "http://build.fhir.org/ig/hl7au/au-fhir-childhealth/StructureDefinition/ncdhc-observation-pregnancy-outcome"
          ]
        },
        "code": {
          "coding": [
            {
              "code": "1403101000168108",
              "system": "http://snomed.info/sct",
              "display": "Pregnancy outcome"
            }
          ]
        },
        "status": "final",
        "subject": {
          "reference": "Patient/a01bacd2-pt5c-11ea-b3de-0242ac110000",
          "display": "Eve Bill"
        },
        "effectiveDateTime": "2020-12-27T16:13:03+10:00",
        "valueCodeableConcept": {
          "coding": [
            {
              "code": "281050002",
              "system": "http://snomed.info/sct",
              "display": "Livebirth"
            }
          ]
        },
        "performer": [
          {
            "reference": "PractitionerRole/p01bacd2-pr5c-11ea-b3de-0242ac130003",
            "display": "Examiner"
          },
          {
            "reference": "Organization/o01bacd2-or5c-11ea-b3de-0242ac130002",
            "display": "Clinical Responsible Organisation"
          }
        ]
      }
    },
    {
      "fullUrl": "urn:uuid:0a645a42-fe48-o002-0001-dphr00hi0109",
      "resource": {
        "resourceType": "Observation",
        "id": "0a645a42-fe48-o002-0001-dphr00hi0109",
        "meta": {
          "profile": [
            "http://build.fhir.org/ig/hl7au/au-fhir-childhealth/StructureDefinition/ncdhc-observation-gestation-age"
          ]
        },
        "code": {
          "coding": [
            {
              "code": "57036006",
              "system": "http://snomed.info/sct",
              "display": "Fetal gestational age"
            }
          ]
        },
        "component": [
          {
            "code": {
              "coding": [
                {
                  "code": "258703001",
                  "system": "http://snomed.info/sct",
                  "display": "day"
                }
              ]
            },
            "valueQuantity": {
              "code": "d",
              "system": "http://unitsofmeasure.org",
              "value": 5,
              "unit": "days"
            }
          },
          {
            "code": {
              "coding": [
                {
                  "code": "258705008",
                  "system": "http://snomed.info/sct",
                  "display": "week"
                }
              ]
            },
            "valueQuantity": {
              "code": "wk",
              "system": "http://unitsofmeasure.org",
              "value": 40,
              "unit": "weeks"
            }
          }
        ],
        "status": "final",
        "subject": {
          "reference": "Patient/a01bacd2-pt5c-11ea-b3de-0242ac110000",
          "display": "Eve Bill"
        },
        "effectiveDateTime": "2018-12-27T16:13:03+10:00",
        "category": [
          {
            "coding": [
              {
                "code": "exam",
                "system": "http://terminology.hl7.org/CodeSystem/observation-category"
              }
            ]
          }
        ],
        "performer": [
          {
            "reference": "PractitionerRole/p01bacd2-pr5c-11ea-b3de-0242ac130003",
            "display": "Examiner"
          },
          {
            "reference": "Organization/o01bacd2-or5c-11ea-b3de-0242ac130002",
            "display": "Clinical Responsible Organisation"
          }
        ],
        "note": [
          {
            "text": "Gestation Age 40.5"
          }
        ]
      }
    },
    {
      "fullUrl": "urn:uuid:0a645a42-fe48-o003-0001-dphr00hi0109",
      "resource": {
        "resourceType": "Observation",
        "id": "0a645a42-fe48-o003-0001-dphr00hi0109",
        "meta": {
          "profile": [
            "http://build.fhir.org/ig/hl7au/au-fhir-childhealth/StructureDefinition/ncdhc-observation-date-of-fetal-loss"
          ]
        },
        "code": {
          "coding": [
            {
              "code": "1403091000168103",
              "system": "http://snomed.info/sct",
              "display": "Pregnancy completion date"
            }
          ]
        },
        "status": "final",
        "subject": {
          "reference": "Patient/a01bacd2-pt5c-11ea-b3de-0242ac110000",
          "display": "Eve Bill"
        },
        "effectiveDateTime": "2020-12-27T16:13:03+10:00",
        "valueDateTime": "2020-12-27T16:13:03+10:00",
        "performer": [
          {
            "reference": "PractitionerRole/p01bacd2-pr5c-11ea-b3de-0242ac130003",
            "display": "Examiner"
          },
          {
            "reference": "Organization/o01bacd2-or5c-11ea-b3de-0242ac130002",
            "display": "Clinical Responsible Organisation"
          }
        ]
      }
    },
    {
      "fullUrl": "urn:uuid:0a645a42-fe48-p001-0001-dphr00hi0109",
      "resource": {
        "resourceType": "Patient",
        "id": "0a645a42-fe48-p001-0001-dphr00hi0109",
        "meta": {
          "profile": [
            "http://hl7.org.au/fhir/StructureDefinition/au-patient"
          ]
        },
        "active": true,
        "name": [
          {
            "given": [
              "Baby of Eve"
            ],
            "family": "Bill"
          }
        ],
        "birthDate": "2018-12-27"
      }
    }
  ]
}
